<?xml version="1.0" encoding="ISO-8859-1" ?>
  <?xml-stylesheet type="text/xsl" href="define2-0-0.xsl"?>
    <!-- ************************************************************* -->
    <!-- File: define.xml                                              -->
    <!-- Date: 18September2022                                                   -->
    <!-- Description: Define.xml file for XYZ123                       -->
    <!-- Created by the defineR package                                -->
    <!-- ************************************************************* -->
    <ODM
  xmlns="http://www.cdisc.org/ns/odm/v1.3"
  xmlns:xlink="http://www.w3.org/1999/xlink"
  xmlns:def="http://www.cdisc.org/ns/def/v2.0"
  ODMVersion="1.3.2"
  FileOID="XYZ123"
  FileType="Snapshot"
  CreationDateTime="2022-09-18T21:32:47">
    <Study OID="123">
    <GlobalVariables>
    <StudyName>XYZ123</StudyName>
    <StudyDescription>A PHASE IIB, DOUBLE-BLIND, MULTI-CENTER, PLACEBO CONTROLLED, PARALLEL GROUP TRIAL OF ANALGEZIA HCL FOR THE TREATMENT OF CHRONIC PAIN</StudyDescription>
    <ProtocolName>XYZ123</ProtocolName>
    </GlobalVariables>
    <MetaDataVersion OID="CDISC.SDTM-IG.3.2"
  Name="XYZ123, SDTM Data Definitions"
  Description="XYZ123, SDTM Data Definitions"
  def:DefineVersion="2.0.0"
  def:StandardName="SDTM-IG"
  def:StandardVersion="3.2">

  <!-- ******************************************* -->
  <!-- EXTERNAL DOCUMENT REFERENCE             *** -->
  <!-- ******************************************* -->
<def:AnnotatedCRF>
  <def:DocumentRef leafID="LF.blankcrf"/>
</def:AnnotatedCRF>

<def:SupplementalDoc>
  <def:DocumentRef leafID="LF.CRTRG"/>
</def:SupplementalDoc>


  <!-- ******************************************* -->
  <!-- VALUE LEVEL LIST DEFINITION INFORMATION  ** -->
  <!-- ******************************************* -->

<def:ValueListDef OID="VL.LB.LBORRES">
<ItemRef ItemOID="IT.LB.LBORRES.ALB"
  OrderNumber="1"
  Mandatory="No"

  >
  <def:WhereClauseRef WhereClauseOID="WC.LB.LBORRES.ALB"/>

</ItemRef>
<ItemRef ItemOID="IT.LB.LBORRES.ALP"
  OrderNumber="2"
  Mandatory="No"

  >
  <def:WhereClauseRef WhereClauseOID="WC.LB.LBORRES.ALP"/>

</ItemRef>
<ItemRef ItemOID="IT.LB.LBORRES.ALT"
  OrderNumber="3"
  Mandatory="No"

  >
  <def:WhereClauseRef WhereClauseOID="WC.LB.LBORRES.ALT"/>

</ItemRef>
<ItemRef ItemOID="IT.LB.LBORRES.AST"
  OrderNumber="4"
  Mandatory="No"

  >
  <def:WhereClauseRef WhereClauseOID="WC.LB.LBORRES.AST"/>

</ItemRef>
<ItemRef ItemOID="IT.LB.LBORRES.BILDIR"
  OrderNumber="5"
  Mandatory="No"

  >
  <def:WhereClauseRef WhereClauseOID="WC.LB.LBORRES.BILDIR"/>

</ItemRef>
<ItemRef ItemOID="IT.LB.LBORRES.BILI"
  OrderNumber="6"
  Mandatory="No"

  >
  <def:WhereClauseRef WhereClauseOID="WC.LB.LBORRES.BILI"/>

</ItemRef>
<ItemRef ItemOID="IT.LB.LBORRES.GGT"
  OrderNumber="7"
  Mandatory="No"

  >
  <def:WhereClauseRef WhereClauseOID="WC.LB.LBORRES.GGT"/>

</ItemRef>
<ItemRef ItemOID="IT.LB.LBORRES.HCT"
  OrderNumber="8"
  Mandatory="No"

  >
  <def:WhereClauseRef WhereClauseOID="WC.LB.LBORRES.HCT"/>

</ItemRef>
<ItemRef ItemOID="IT.LB.LBORRES.HGB"
  OrderNumber="9"
  Mandatory="No"

  >
  <def:WhereClauseRef WhereClauseOID="WC.LB.LBORRES.HGB"/>

</ItemRef>
<ItemRef ItemOID="IT.LB.LBORRES.PROT"
  OrderNumber="10"
  Mandatory="No"

  >
  <def:WhereClauseRef WhereClauseOID="WC.LB.LBORRES.PROT"/>

</ItemRef>
<ItemRef ItemOID="IT.LB.LBORRES.GLUC.CHEMISTRY"
  OrderNumber="11"
  Mandatory="No"

  >
  <def:WhereClauseRef WhereClauseOID="WC.WC.LB.LBTESTCD.GLUC.LBCAT.CHEMISTRY"/>

</ItemRef>
<ItemRef ItemOID="IT.LB.LBORRES.GLUC.URINALYSIS"
  OrderNumber="12"
  Mandatory="No"

  >
  <def:WhereClauseRef WhereClauseOID="WC.WC.LB.LBTESTCD.GLUC.LBCAT.URINALYSIS"/>

</ItemRef>
 </def:ValueListDef>

<def:ValueListDef OID="VL.SUPPDM.QVAL">
<ItemRef ItemOID="IT.SUPPDM.QVAL.RACEOTH"
  OrderNumber="1"
  Mandatory="No"

  MethodOID="MT.SUPPDM.RACEOTH">
  <def:WhereClauseRef WhereClauseOID="WC.SUPPDM.QVAL.RACEOTH"/>

</ItemRef>
<ItemRef ItemOID="IT.SUPPDM.QVAL.RANDDTC"
  OrderNumber="2"
  Mandatory="No"

  MethodOID="MT.SUPPDM.RANDDT">
  <def:WhereClauseRef WhereClauseOID="WC.SUPPDM.QVAL.RANDDTC"/>

</ItemRef>
 </def:ValueListDef>


  <!-- ****************************************************************** -->
  <!-- WhereClause Definitions Used/Referenced in Value List Definitions) -->
  <!-- ****************************************************************** -->
<def:WhereClauseDef OID="WC.WC.LB.LBTESTCD.GLUC.LBCAT.CHEMISTRY">
<RangeCheck SoftHard="Soft" def:ItemOID="IT.LB.LBCAT" Comparator="EQ">
<CheckValue>CHEMISTRY</CheckValue>
</RangeCheck>
<RangeCheck SoftHard="Soft" def:ItemOID="IT.LB.LBTESTCD" Comparator="EQ">
<CheckValue>GLUC</CheckValue>
</RangeCheck>
</def:WhereClauseDef>
<def:WhereClauseDef OID="WC.WC.LB.LBTESTCD.GLUC.LBCAT.URINALYSIS">
<RangeCheck SoftHard="Soft" def:ItemOID="IT.LB.LBCAT" Comparator="EQ">
<CheckValue>URINALYSIS</CheckValue>
</RangeCheck>
<RangeCheck SoftHard="Soft" def:ItemOID="IT.LB.LBTESTCD" Comparator="EQ">
<CheckValue>GLUC</CheckValue>
</RangeCheck>
</def:WhereClauseDef>
<def:WhereClauseDef OID="WC.LB.LBORRES.ALB">
<RangeCheck SoftHard="Soft" def:ItemOID="IT.LB.LBTESTCD" Comparator="EQ">
<CheckValue>ALB</CheckValue>
</RangeCheck>
</def:WhereClauseDef>
<def:WhereClauseDef OID="WC.LB.LBORRES.ALP">
<RangeCheck SoftHard="Soft" def:ItemOID="IT.LB.LBTESTCD" Comparator="EQ">
<CheckValue>ALP</CheckValue>
</RangeCheck>
</def:WhereClauseDef>
<def:WhereClauseDef OID="WC.LB.LBORRES.ALT">
<RangeCheck SoftHard="Soft" def:ItemOID="IT.LB.LBTESTCD" Comparator="EQ">
<CheckValue>ALT</CheckValue>
</RangeCheck>
</def:WhereClauseDef>
<def:WhereClauseDef OID="WC.LB.LBORRES.AST">
<RangeCheck SoftHard="Soft" def:ItemOID="IT.LB.LBTESTCD" Comparator="EQ">
<CheckValue>AST</CheckValue>
</RangeCheck>
</def:WhereClauseDef>
<def:WhereClauseDef OID="WC.LB.LBORRES.BILDIR">
<RangeCheck SoftHard="Soft" def:ItemOID="IT.LB.LBTESTCD" Comparator="EQ">
<CheckValue>BILDIR</CheckValue>
</RangeCheck>
</def:WhereClauseDef>
<def:WhereClauseDef OID="WC.LB.LBORRES.BILI">
<RangeCheck SoftHard="Soft" def:ItemOID="IT.LB.LBTESTCD" Comparator="EQ">
<CheckValue>BILI</CheckValue>
</RangeCheck>
</def:WhereClauseDef>
<def:WhereClauseDef OID="WC.LB.LBORRES.GGT">
<RangeCheck SoftHard="Soft" def:ItemOID="IT.LB.LBTESTCD" Comparator="EQ">
<CheckValue>GGT</CheckValue>
</RangeCheck>
</def:WhereClauseDef>
<def:WhereClauseDef OID="WC.LB.LBORRES.HCT">
<RangeCheck SoftHard="Soft" def:ItemOID="IT.LB.LBTESTCD" Comparator="EQ">
<CheckValue>HCT</CheckValue>
</RangeCheck>
</def:WhereClauseDef>
<def:WhereClauseDef OID="WC.LB.LBORRES.HGB">
<RangeCheck SoftHard="Soft" def:ItemOID="IT.LB.LBTESTCD" Comparator="EQ">
<CheckValue>HGB</CheckValue>
</RangeCheck>
</def:WhereClauseDef>
<def:WhereClauseDef OID="WC.LB.LBORRES.PROT">
<RangeCheck SoftHard="Soft" def:ItemOID="IT.LB.LBTESTCD" Comparator="EQ">
<CheckValue>PROT</CheckValue>
</RangeCheck>
</def:WhereClauseDef>
<def:WhereClauseDef OID="WC.SUPPDM.QVAL.RACEOTH">
<RangeCheck SoftHard="Soft" def:ItemOID="IT.SUPPDM.QNAM" Comparator="EQ">
<CheckValue>RACEOTH</CheckValue>
</RangeCheck>
</def:WhereClauseDef>
<def:WhereClauseDef OID="WC.SUPPDM.QVAL.RANDDTC">
<RangeCheck SoftHard="Soft" def:ItemOID="IT.SUPPDM.QNAM" Comparator="EQ">
<CheckValue>RANDDTC</CheckValue>
</RangeCheck>
</def:WhereClauseDef>
<!-- ******************************************* -->
<!-- AE             ItemGroupDef INFORMATION *** -->
<!-- ******************************************* -->
<ItemGroupDef OID="IG.AE"
Domain="AE"
Name="AE"
Repeating="Yes"
Purpose="Tabulation"
IsReferenceData="No"
SASDatasetName="AE"
def:Structure="Events - One record per event per subject"
def:Class="Events"
def:ArchiveLocationID="LF.AE">
<Description>
  <TranslatedText xml:lang="en">Adverse Events</TranslatedText>
</Description>
<ItemRef ItemOID="IT.AE.STUDYID"
OrderNumber="1"
Mandatory="Yes"
KeySequence="1"
Role="Identifier"
RoleCodeListOID="CL.rolecode"/>
<ItemRef ItemOID="IT.AE.DOMAIN"
OrderNumber="2"
Mandatory="Yes"
MethodOID="MT.SETDOMAIN"
Role="Identifier"
RoleCodeListOID="CL.rolecode"/>
<ItemRef ItemOID="IT.AE.USUBJID"
OrderNumber="3"
Mandatory="Yes"
KeySequence="2"
Role="Identifier"
RoleCodeListOID="CL.rolecode"/>
<ItemRef ItemOID="IT.AE.AESEQ"
OrderNumber="4"
Mandatory="Yes"
MethodOID="MT.AE.AESEQ"
Role="Identifier"
RoleCodeListOID="CL.rolecode"/>
<ItemRef ItemOID="IT.AE.AETERM"
OrderNumber="5"
Mandatory="Yes"
Role="Topic"
RoleCodeListOID="CL.rolecode"/>
<ItemRef ItemOID="IT.AE.AELLT"
OrderNumber="6"
Mandatory="Yes"
Role="SynonymQualifier"
RoleCodeListOID="CL.rolecode"/>
<ItemRef ItemOID="IT.AE.AELLTCD"
OrderNumber="7"
Mandatory="Yes"
Role="SynonymQualifier"
RoleCodeListOID="CL.rolecode"/>
<ItemRef ItemOID="IT.AE.AEDECOD"
OrderNumber="8"
Mandatory="Yes"
KeySequence="3"
Role="SynonymQualifier"
RoleCodeListOID="CL.rolecode"/>
<ItemRef ItemOID="IT.AE.AEPTCD"
OrderNumber="9"
Mandatory="Yes"
Role="VariableQualifier"
RoleCodeListOID="CL.rolecode"/>
<ItemRef ItemOID="IT.AE.AEHLT"
OrderNumber="10"
Mandatory="Yes"
Role="VariableQualifier"
RoleCodeListOID="CL.rolecode"/>
<ItemRef ItemOID="IT.AE.AEHLTCD"
OrderNumber="11"
Mandatory="Yes"
Role="VariableQualifier"
RoleCodeListOID="CL.rolecode"/>
<ItemRef ItemOID="IT.AE.AEHLGT"
OrderNumber="12"
Mandatory="Yes"
Role="VariableQualifier"
RoleCodeListOID="CL.rolecode"/>
<ItemRef ItemOID="IT.AE.AEHLGTCD"
OrderNumber="13"
Mandatory="Yes"
Role="VariableQualifier"
RoleCodeListOID="CL.rolecode"/>
<ItemRef ItemOID="IT.AE.AEBODSYS"
OrderNumber="14"
Mandatory="No"
Role="RecordQualifier"
RoleCodeListOID="CL.rolecode"/>
<ItemRef ItemOID="IT.AE.AEBDSYCD"
OrderNumber="15"
Mandatory="Yes"
Role="RecordQualifier"
RoleCodeListOID="CL.rolecode"/>
<ItemRef ItemOID="IT.AE.AESOC"
OrderNumber="16"
Mandatory="Yes"
Role="RecordQualifier"
RoleCodeListOID="CL.rolecode"/>
<ItemRef ItemOID="IT.AE.AESOCCD"
OrderNumber="17"
Mandatory="Yes"
Role="RecordQualifier"
RoleCodeListOID="CL.rolecode"/>
<ItemRef ItemOID="IT.AE.AESEV"
OrderNumber="18"
Mandatory="No"
Role="RecordQualifier"
RoleCodeListOID="CL.rolecode"/>
<ItemRef ItemOID="IT.AE.AESER"
OrderNumber="19"
Mandatory="No"
Role="RecordQualifier"
RoleCodeListOID="CL.rolecode"/>
<ItemRef ItemOID="IT.AE.AEACN"
OrderNumber="20"
Mandatory="No"
Role="RecordQualifier"
RoleCodeListOID="CL.rolecode"/>
<ItemRef ItemOID="IT.AE.AEREL"
OrderNumber="21"
Mandatory="No"
Role="RecordQualifier"
RoleCodeListOID="CL.rolecode"/>
<ItemRef ItemOID="IT.AE.AESLIFE"
OrderNumber="22"
Mandatory="No"
Role="RecordQualifier"
RoleCodeListOID="CL.rolecode"/>
<ItemRef ItemOID="IT.AE.EPOCH"
OrderNumber="23"
Mandatory="No"
MethodOID="MT.AE.EPOCH"
Role="Timing"
RoleCodeListOID="CL.rolecode"/>
<ItemRef ItemOID="IT.AE.AESTDTC"
OrderNumber="24"
Mandatory="No"
KeySequence="4"
Role="Timing"
RoleCodeListOID="CL.rolecode"/>
<ItemRef ItemOID="IT.AE.AEENDTC"
OrderNumber="25"
Mandatory="No"
Role="Timing"
RoleCodeListOID="CL.rolecode"/>
<ItemRef ItemOID="IT.AE.AESTDY"
OrderNumber="26"
Mandatory="No"
MethodOID="MT.STUDYDAYS"
Role="Timing"
RoleCodeListOID="CL.rolecode"/>
<ItemRef ItemOID="IT.AE.AEENDY"
OrderNumber="27"
Mandatory="No"
MethodOID="MT.STUDYDAYS"
Role="Timing"
RoleCodeListOID="CL.rolecode"/>
 <!-- **************************************************** -->
      <!-- def:leaf details for hypertext linking the dataset   -->
      <!-- **************************************************** -->
<def:leaf ID="LF.AE" xlink:href="ae.xpt">
    <def:title>ae.xpt </def:title>
  </def:leaf>
</ItemGroupDef>
<!-- ******************************************* -->
<!-- DM             ItemGroupDef INFORMATION *** -->
<!-- ******************************************* -->
<ItemGroupDef OID="IG.DM"
Domain="DM"
Name="DM"
Repeating="No"
Purpose="Tabulation"
IsReferenceData="No"
SASDatasetName="DM"
def:Structure="Special Purpose - One record per event per subject"
def:Class="Special Purpose"
def:ArchiveLocationID="LF.DM">
<Description>
  <TranslatedText xml:lang="en">Demographics</TranslatedText>
</Description>
<ItemRef ItemOID="IT.DM.STUDYID"
OrderNumber="1"
Mandatory="Yes"
KeySequence="1"
Role="Identifier"
RoleCodeListOID="CL.rolecode"/>
<ItemRef ItemOID="IT.DM.DOMAIN"
OrderNumber="2"
Mandatory="Yes"
MethodOID="MT.SETDOMAIN"
Role="Identifier"
RoleCodeListOID="CL.rolecode"/>
<ItemRef ItemOID="IT.DM.USUBJID"
OrderNumber="3"
Mandatory="Yes"
KeySequence="2"
Role="Identifier"
RoleCodeListOID="CL.rolecode"/>
<ItemRef ItemOID="IT.DM.SUBJID"
OrderNumber="4"
Mandatory="Yes"
Role="Identifier"
RoleCodeListOID="CL.rolecode"/>
<ItemRef ItemOID="IT.DM.RFSTDTC"
OrderNumber="5"
Mandatory="No"
Role="RecordQualifier"
RoleCodeListOID="CL.rolecode"/>
<ItemRef ItemOID="IT.DM.RFENDTC"
OrderNumber="6"
Mandatory="No"
MethodOID="MT.DM.RFENDTC"
Role="RecordQualifier"
RoleCodeListOID="CL.rolecode"/>
<ItemRef ItemOID="IT.DM.RFXSTDTC"
OrderNumber="7"
Mandatory="Yes"
Role="RecordQualifier"
RoleCodeListOID="CL.rolecode"/>
<ItemRef ItemOID="IT.DM.RFXENDTC"
OrderNumber="8"
Mandatory="Yes"
Role="RecordQualifier"
RoleCodeListOID="CL.rolecode"/>
<ItemRef ItemOID="IT.DM.RFICDTC"
OrderNumber="9"
Mandatory="Yes"
Role="RecordQualifier"
RoleCodeListOID="CL.rolecode"/>
<ItemRef ItemOID="IT.DM.RFPENDTC"
OrderNumber="10"
Mandatory="Yes"
Role="RecordQualifier"
RoleCodeListOID="CL.rolecode"/>
<ItemRef ItemOID="IT.DM.DTHDTC"
OrderNumber="11"
Mandatory="Yes"
MethodOID="MT.DM.DTHDTC"
Role="RecordQualifier"
RoleCodeListOID="CL.rolecode"/>
<ItemRef ItemOID="IT.DM.DTHFL"
OrderNumber="12"
Mandatory="Yes"
MethodOID="MT.DM.DTHFL"
Role="RecordQualifier"
RoleCodeListOID="CL.rolecode"/>
<ItemRef ItemOID="IT.DM.SITEID"
OrderNumber="13"
Mandatory="Yes"
Role="RecordQualifier"
RoleCodeListOID="CL.rolecode"/>
<ItemRef ItemOID="IT.DM.BRTHDTC"
OrderNumber="14"
Mandatory="No"
Role="RecordQualifier"
RoleCodeListOID="CL.rolecode"/>
<ItemRef ItemOID="IT.DM.AGE"
OrderNumber="15"
Mandatory="No"
MethodOID="MT.DM.AGE"
Role="RecordQualifier"
RoleCodeListOID="CL.rolecode"/>
<ItemRef ItemOID="IT.DM.AGEU"
OrderNumber="16"
Mandatory="No"
MethodOID="MT.DM.AGEU"
Role="VariableQualifier"
RoleCodeListOID="CL.rolecode"/>
<ItemRef ItemOID="IT.DM.SEX"
OrderNumber="17"
Mandatory="Yes"
Role="RecordQualifier"
RoleCodeListOID="CL.rolecode"/>
<ItemRef ItemOID="IT.DM.RACE"
OrderNumber="18"
Mandatory="No"
Role="RecordQualifier"
RoleCodeListOID="CL.rolecode"/>
<ItemRef ItemOID="IT.DM.ARMCD"
OrderNumber="19"
Mandatory="Yes"
Role="RecordQualifier"
RoleCodeListOID="CL.rolecode"/>
<ItemRef ItemOID="IT.DM.ARM"
OrderNumber="20"
Mandatory="Yes"
Role="SynonymQualifier"
RoleCodeListOID="CL.rolecode"/>
<ItemRef ItemOID="IT.DM.ACTARMCD"
OrderNumber="21"
Mandatory="Yes"
Role="RecordQualifier"
RoleCodeListOID="CL.rolecode"/>
<ItemRef ItemOID="IT.DM.ACTARM"
OrderNumber="22"
Mandatory="Yes"
Role="SynonymQualifier"
RoleCodeListOID="CL.rolecode"/>
<ItemRef ItemOID="IT.DM.COUNTRY"
OrderNumber="23"
Mandatory="Yes"
MethodOID="MT.DM.COUNTRY"
Role="RecordQualifier"
RoleCodeListOID="CL.rolecode"/>
 <!-- **************************************************** -->
      <!-- def:leaf details for hypertext linking the dataset   -->
      <!-- **************************************************** -->
<def:leaf ID="LF.DM" xlink:href="dm.xpt">
    <def:title>dm.xpt </def:title>
  </def:leaf>
</ItemGroupDef>
<!-- ******************************************* -->
<!-- EX             ItemGroupDef INFORMATION *** -->
<!-- ******************************************* -->
<ItemGroupDef OID="IG.EX"
Domain="EX"
Name="EX"
Repeating="Yes"
Purpose="Tabulation"
IsReferenceData="No"
SASDatasetName="EX"
def:Structure="One record per constant dosing interval per subject"
def:Class="Interventions"
def:ArchiveLocationID="LF.EX">
<Description>
  <TranslatedText xml:lang="en">Exposure</TranslatedText>
</Description>
<ItemRef ItemOID="IT.EX.STUDYID"
OrderNumber="1"
Mandatory="Yes"
KeySequence="1"
Role="Identifier"
RoleCodeListOID="CL.rolecode"/>
<ItemRef ItemOID="IT.EX.DOMAIN"
OrderNumber="2"
Mandatory="Yes"
MethodOID="MT.SETDOMAIN"
Role="Identifier"
RoleCodeListOID="CL.rolecode"/>
<ItemRef ItemOID="IT.EX.USUBJID"
OrderNumber="3"
Mandatory="Yes"
KeySequence="2"
Role="Identifier"
RoleCodeListOID="CL.rolecode"/>
<ItemRef ItemOID="IT.EX.EXSEQ"
OrderNumber="4"
Mandatory="Yes"
MethodOID="MT.EX.EXSEQ"
Role="Identifier"
RoleCodeListOID="CL.rolecode"/>
<ItemRef ItemOID="IT.EX.EXTRT"
OrderNumber="5"
Mandatory="Yes"
KeySequence="3"
MethodOID="MT.EX.EXTRT"
Role="Topic"
RoleCodeListOID="CL.rolecode"/>
<ItemRef ItemOID="IT.EX.EXDOSE"
OrderNumber="6"
Mandatory="No"
Role="RecordQualifier"
RoleCodeListOID="CL.rolecode"/>
<ItemRef ItemOID="IT.EX.EXDOSU"
OrderNumber="7"
Mandatory="No"
MethodOID="MT.EX.EXDOSU"
Role="VariableQualifier"
RoleCodeListOID="CL.rolecode"/>
<ItemRef ItemOID="IT.EX.EXDOSFRM"
OrderNumber="8"
Mandatory="No"
MethodOID="MT.EX.EXDOSFRM"
Role="RecordQualifier"
RoleCodeListOID="CL.rolecode"/>
<ItemRef ItemOID="IT.EX.EPOCH"
OrderNumber="9"
Mandatory="No"
MethodOID="MT.EX.EPOCH"
Role="Timing"
RoleCodeListOID="CL.rolecode"/>
<ItemRef ItemOID="IT.EX.EXSTDTC"
OrderNumber="10"
Mandatory="No"
Role="Timing"
RoleCodeListOID="CL.rolecode"/>
<ItemRef ItemOID="IT.EX.EXENDTC"
OrderNumber="11"
Mandatory="No"
KeySequence="4"
Role="Timing"
RoleCodeListOID="CL.rolecode"/>
<ItemRef ItemOID="IT.EX.EXSTDY"
OrderNumber="12"
Mandatory="No"
MethodOID="MT.STUDYDAYS"
Role="Timing"
RoleCodeListOID="CL.rolecode"/>
<ItemRef ItemOID="IT.EX.EXENDY"
OrderNumber="13"
Mandatory="No"
MethodOID="MT.STUDYDAYS"
Role="Timing"
RoleCodeListOID="CL.rolecode"/>
 <!-- **************************************************** -->
      <!-- def:leaf details for hypertext linking the dataset   -->
      <!-- **************************************************** -->
<def:leaf ID="LF.EX" xlink:href="ex.xpt">
    <def:title>ex.xpt </def:title>
  </def:leaf>
</ItemGroupDef>
<!-- ******************************************* -->
<!-- LB             ItemGroupDef INFORMATION *** -->
<!-- ******************************************* -->
<ItemGroupDef OID="IG.LB"
Domain="LB"
Name="LB"
Repeating="Yes"
Purpose="Tabulation"
IsReferenceData="No"
SASDatasetName="LB"
def:Structure="Findings - One record per lab test per subject"
def:Class="Findings"
def:ArchiveLocationID="LF.LB">
<Description>
  <TranslatedText xml:lang="en">Laboratory Test Results</TranslatedText>
</Description>
<ItemRef ItemOID="IT.LB.STUDYID"
OrderNumber="1"
Mandatory="Yes"
KeySequence="1"
Role="Identifier"
RoleCodeListOID="CL.rolecode"/>
<ItemRef ItemOID="IT.LB.DOMAIN"
OrderNumber="2"
Mandatory="Yes"
MethodOID="MT.SETDOMAIN"
Role="Identifier"
RoleCodeListOID="CL.rolecode"/>
<ItemRef ItemOID="IT.LB.USUBJID"
OrderNumber="3"
Mandatory="Yes"
KeySequence="2"
Role="Identifier"
RoleCodeListOID="CL.rolecode"/>
<ItemRef ItemOID="IT.LB.LBSEQ"
OrderNumber="4"
Mandatory="Yes"
MethodOID="MT.LB.LBSEQ"
Role="Identifier"
RoleCodeListOID="CL.rolecode"/>
<ItemRef ItemOID="IT.LB.LBTESTCD"
OrderNumber="5"
Mandatory="Yes"
KeySequence="4"
MethodOID="MT.LB.LBTESTCD"
Role="Topic"
RoleCodeListOID="CL.rolecode"/>
<ItemRef ItemOID="IT.LB.LBTEST"
OrderNumber="6"
Mandatory="Yes"
MethodOID="MT.LB.LBTEST"
Role="SynonymQualifier"
RoleCodeListOID="CL.rolecode"/>
<ItemRef ItemOID="IT.LB.LBCAT"
OrderNumber="7"
Mandatory="No"
KeySequence="3"
MethodOID="MT.LB.LBCAT"
Role="GroupingQualifier"
RoleCodeListOID="CL.rolecode"/>
<ItemRef ItemOID="IT.LB.LBORRES"
OrderNumber="8"
Mandatory="No"
Role="ResultQualifier"
RoleCodeListOID="CL.rolecode"/>
<ItemRef ItemOID="IT.LB.LBORRESU"
OrderNumber="9"
Mandatory="No"
Role="VariableQualifier"
RoleCodeListOID="CL.rolecode"/>
<ItemRef ItemOID="IT.LB.LBORNRLO"
OrderNumber="10"
Mandatory="No"
Role="VariableQualifier"
RoleCodeListOID="CL.rolecode"/>
<ItemRef ItemOID="IT.LB.LBORNRHI"
OrderNumber="11"
Mandatory="No"
Role="VariableQualifier"
RoleCodeListOID="CL.rolecode"/>
<ItemRef ItemOID="IT.LB.LBSTRESC"
OrderNumber="12"
Mandatory="No"
MethodOID="MT.LB.LBSTRESC"
Role="ResultQualifier"
RoleCodeListOID="CL.rolecode"/>
<ItemRef ItemOID="IT.LB.LBSTRESN"
OrderNumber="13"
Mandatory="No"
MethodOID="MT.LB.LBSTRESN"
Role="ResultQualifier"
RoleCodeListOID="CL.rolecode"/>
<ItemRef ItemOID="IT.LB.LBSTRESU"
OrderNumber="14"
Mandatory="No"
MethodOID="MT.LB.LBSTRESU"
Role="VariableQualifier"
RoleCodeListOID="CL.rolecode"/>
<ItemRef ItemOID="IT.LB.LBSTNRLO"
OrderNumber="15"
Mandatory="No"
MethodOID="MT.LB.LBSTNRLO"
Role="VariableQualifier"
RoleCodeListOID="CL.rolecode"/>
<ItemRef ItemOID="IT.LB.LBSTNRHI"
OrderNumber="16"
Mandatory="No"
MethodOID="MT.LB.LBSTNRHI"
Role="VariableQualifier"
RoleCodeListOID="CL.rolecode"/>
<ItemRef ItemOID="IT.LB.LBNRIND"
OrderNumber="17"
Mandatory="No"
MethodOID="MT.LB.LBNRIND"
Role="VariableQualifier"
RoleCodeListOID="CL.rolecode"/>
<ItemRef ItemOID="IT.LB.LBBLFL"
OrderNumber="18"
Mandatory="No"
MethodOID="MT.LB.LBBLFL"
Role="RecordQualifier"
RoleCodeListOID="CL.rolecode"/>
<ItemRef ItemOID="IT.LB.VISITNUM"
OrderNumber="19"
Mandatory="No"
KeySequence="5"
Role="Timing"
RoleCodeListOID="CL.rolecode"/>
<ItemRef ItemOID="IT.LB.VISIT"
OrderNumber="20"
Mandatory="No"
Role="Timing"
RoleCodeListOID="CL.rolecode"/>
<ItemRef ItemOID="IT.LB.EPOCH"
OrderNumber="21"
Mandatory="No"
MethodOID="MT.LB.EPOCH"
Role="Timing"
RoleCodeListOID="CL.rolecode"/>
<ItemRef ItemOID="IT.LB.LBDTC"
OrderNumber="22"
Mandatory="No"
Role="Timing"
RoleCodeListOID="CL.rolecode"/>
<ItemRef ItemOID="IT.LB.LBDY"
OrderNumber="23"
Mandatory="No"
MethodOID="MT.STUDYDAYS"
Role="Timing"
RoleCodeListOID="CL.rolecode"/>
 <!-- **************************************************** -->
      <!-- def:leaf details for hypertext linking the dataset   -->
      <!-- **************************************************** -->
<def:leaf ID="LF.LB" xlink:href="lb.xpt">
    <def:title>lb.xpt </def:title>
  </def:leaf>
</ItemGroupDef>
<!-- ******************************************* -->
<!-- XP             ItemGroupDef INFORMATION *** -->
<!-- ******************************************* -->
<ItemGroupDef OID="IG.XP"
Domain="XP"
Name="XP"
Repeating="Yes"
Purpose="Tabulation"
IsReferenceData="No"
SASDatasetName="XP"
def:Structure="One record per subject per visit"
def:Class="Findings"
def:ArchiveLocationID="LF.XP">
<Description>
  <TranslatedText xml:lang="en">Pain Scores</TranslatedText>
</Description>
<ItemRef ItemOID="IT.XP.STUDYID"
OrderNumber="1"
Mandatory="Yes"
KeySequence="1"
Role="Identifier"
RoleCodeListOID="CL.rolecode"/>
<ItemRef ItemOID="IT.XP.DOMAIN"
OrderNumber="2"
Mandatory="Yes"
MethodOID="MT.SETDOMAIN"
Role="Identifier"
RoleCodeListOID="CL.rolecode"/>
<ItemRef ItemOID="IT.XP.USUBJID"
OrderNumber="3"
Mandatory="Yes"
KeySequence="2"
Role="Identifier"
RoleCodeListOID="CL.rolecode"/>
<ItemRef ItemOID="IT.XP.XPSEQ"
OrderNumber="4"
Mandatory="Yes"
MethodOID="MT.XP.XPSEQ"
Role="Identifier"
RoleCodeListOID="CL.rolecode"/>
<ItemRef ItemOID="IT.XP.XPTESTCD"
OrderNumber="5"
Mandatory="Yes"
KeySequence="3"
MethodOID="MT.XP.XPTESTCD"
Role="Topic"
RoleCodeListOID="CL.rolecode"/>
<ItemRef ItemOID="IT.XP.XPTEST"
OrderNumber="6"
Mandatory="Yes"
MethodOID="MT.XP.XPTEST"
Role="SynonymQualifier"
RoleCodeListOID="CL.rolecode"/>
<ItemRef ItemOID="IT.XP.XPORRES"
OrderNumber="7"
Mandatory="No"
Role="ResultQualifier"
RoleCodeListOID="CL.rolecode"/>
<ItemRef ItemOID="IT.XP.XPSTRESC"
OrderNumber="8"
Mandatory="No"
Role="ResultQualifier"
RoleCodeListOID="CL.rolecode"/>
<ItemRef ItemOID="IT.XP.XPSTRESN"
OrderNumber="9"
Mandatory="No"
Role="ResultQualifier"
RoleCodeListOID="CL.rolecode"/>
<ItemRef ItemOID="IT.XP.EPOCH"
OrderNumber="10"
Mandatory="No"
MethodOID="MT.XP.EPOCH"
Role="Timing"
RoleCodeListOID="CL.rolecode"/>
<ItemRef ItemOID="IT.XP.VISITNUM"
OrderNumber="11"
Mandatory="No"
KeySequence="4"
Role="Timing"
RoleCodeListOID="CL.rolecode"/>
<ItemRef ItemOID="IT.XP.VISIT"
OrderNumber="12"
Mandatory="No"
Role="Timing"
RoleCodeListOID="CL.rolecode"/>
<ItemRef ItemOID="IT.XP.XPBLFL"
OrderNumber="13"
Mandatory="No"
MethodOID="MT.XP.XPBLFL"
Role="RecordQualifier"
RoleCodeListOID="CL.rolecode"/>
<ItemRef ItemOID="IT.XP.XPDTC"
OrderNumber="14"
Mandatory="No"
Role="Timing"
RoleCodeListOID="CL.rolecode"/>
<ItemRef ItemOID="IT.XP.XPDY"
OrderNumber="15"
Mandatory="No"
MethodOID="MT.STUDYDAYS"
Role="Timing"
RoleCodeListOID="CL.rolecode"/>
 <!-- **************************************************** -->
      <!-- def:leaf details for hypertext linking the dataset   -->
      <!-- **************************************************** -->
<def:leaf ID="LF.XP" xlink:href="xp.xpt">
    <def:title>xp.xpt </def:title>
  </def:leaf>
</ItemGroupDef>
<!-- ******************************************* -->
<!-- TA             ItemGroupDef INFORMATION *** -->
<!-- ******************************************* -->
<ItemGroupDef OID="IG.TA"
Domain="TA"
Name="TA"
Repeating="Yes"
Purpose="Tabulation"
IsReferenceData="Yes"
SASDatasetName="TA"
def:Structure="One record per planned Element per Arm"
def:Class="Trial Design"
def:ArchiveLocationID="LF.TA">
<Description>
  <TranslatedText xml:lang="en">Trial Arms</TranslatedText>
</Description>
<ItemRef ItemOID="IT.TA.STUDYID"
OrderNumber="1"
Mandatory="Yes"
KeySequence="1"
Role="Identifier"
RoleCodeListOID="CL.rolecode"/>
<ItemRef ItemOID="IT.TA.DOMAIN"
OrderNumber="2"
Mandatory="Yes"
MethodOID="MT.SETDOMAIN"
Role="Identifier"
RoleCodeListOID="CL.rolecode"/>
<ItemRef ItemOID="IT.TA.ARMCD"
OrderNumber="3"
Mandatory="Yes"
KeySequence="2"
MethodOID="MT.METADATAENTRY"
Role="Topic"
RoleCodeListOID="CL.rolecode"/>
<ItemRef ItemOID="IT.TA.ARM"
OrderNumber="4"
Mandatory="Yes"
MethodOID="MT.METADATAENTRY"
Role="SynonymQualifier"
RoleCodeListOID="CL.rolecode"/>
<ItemRef ItemOID="IT.TA.TAETORD"
OrderNumber="5"
Mandatory="Yes"
KeySequence="3"
MethodOID="MT.METADATAENTRY"
Role="Identifier"
RoleCodeListOID="CL.rolecode"/>
<ItemRef ItemOID="IT.TA.ETCD"
OrderNumber="6"
Mandatory="Yes"
MethodOID="MT.METADATAENTRY"
Role="RecordQualifier"
RoleCodeListOID="CL.rolecode"/>
<ItemRef ItemOID="IT.TA.ELEMENT"
OrderNumber="7"
Mandatory="No"
MethodOID="MT.METADATAENTRY"
Role="SynonymQualifier"
RoleCodeListOID="CL.rolecode"/>
<ItemRef ItemOID="IT.TA.TABRANCH"
OrderNumber="8"
Mandatory="No"
MethodOID="MT.METADATAENTRY"
Role="Rule"
RoleCodeListOID="CL.rolecode"/>
<ItemRef ItemOID="IT.TA.TATRANS"
OrderNumber="9"
Mandatory="No"
MethodOID="MT.METADATAENTRY"
Role="Rule"
RoleCodeListOID="CL.rolecode"/>
<ItemRef ItemOID="IT.TA.EPOCH"
OrderNumber="10"
Mandatory="No"
MethodOID="MT.METADATAENTRY"
Role="Timing"
RoleCodeListOID="CL.rolecode"/>
 <!-- **************************************************** -->
      <!-- def:leaf details for hypertext linking the dataset   -->
      <!-- **************************************************** -->
<def:leaf ID="LF.TA" xlink:href="ta.xpt">
    <def:title>ta.xpt </def:title>
  </def:leaf>
</ItemGroupDef>
<!-- ******************************************* -->
<!-- TD             ItemGroupDef INFORMATION *** -->
<!-- ******************************************* -->
<ItemGroupDef OID="IG.TD"
Domain="TD"
Name="TD"
Repeating="Yes"
Purpose="Tabulation"
IsReferenceData="Yes"
SASDatasetName="TD"
def:Structure="One record per planned schedule of assessments"
def:Class="Trial Design"
def:ArchiveLocationID="LF.TD">
<Description>
  <TranslatedText xml:lang="en">Trial Disease Assessments</TranslatedText>
</Description>
<ItemRef ItemOID="IT.TD.STUDYID"
OrderNumber="1"
Mandatory="Yes"
KeySequence="1"
Role="Identifier"
RoleCodeListOID="CL.rolecode"/>
<ItemRef ItemOID="IT.TD.DOMAIN"
OrderNumber="2"
Mandatory="Yes"
MethodOID="MT.SETDOMAIN"
Role="Identifier"
RoleCodeListOID="CL.rolecode"/>
<ItemRef ItemOID="IT.TD.TDORDER"
OrderNumber="3"
Mandatory="Yes"
KeySequence="2"
MethodOID="MT.METADATAENTRY"
Role="Timing"
RoleCodeListOID="CL.rolecode"/>
<ItemRef ItemOID="IT.TD.TDANCVAR"
OrderNumber="4"
Mandatory="Yes"
MethodOID="MT.METADATAENTRY"
Role="Timing"
RoleCodeListOID="CL.rolecode"/>
<ItemRef ItemOID="IT.TD.TDSTOFF"
OrderNumber="5"
Mandatory="Yes"
MethodOID="MT.METADATAENTRY"
Role="Timing"
RoleCodeListOID="CL.rolecode"/>
<ItemRef ItemOID="IT.TD.TDTGTPAI"
OrderNumber="6"
Mandatory="Yes"
MethodOID="MT.METADATAENTRY"
Role="Timing"
RoleCodeListOID="CL.rolecode"/>
<ItemRef ItemOID="IT.TD.TDMINPAI"
OrderNumber="7"
Mandatory="Yes"
MethodOID="MT.METADATAENTRY"
Role="Timing"
RoleCodeListOID="CL.rolecode"/>
<ItemRef ItemOID="IT.TD.TDMAXPAI"
OrderNumber="8"
Mandatory="Yes"
MethodOID="MT.METADATAENTRY"
Role="Timing"
RoleCodeListOID="CL.rolecode"/>
<ItemRef ItemOID="IT.TD.TDNUMRPT"
OrderNumber="9"
Mandatory="Yes"
MethodOID="MT.METADATAENTRY"
Role="RecordQualifier"
RoleCodeListOID="CL.rolecode"/>
 <!-- **************************************************** -->
      <!-- def:leaf details for hypertext linking the dataset   -->
      <!-- **************************************************** -->
<def:leaf ID="LF.TD" xlink:href="td.xpt">
    <def:title>td.xpt </def:title>
  </def:leaf>
</ItemGroupDef>
<!-- ******************************************* -->
<!-- TE             ItemGroupDef INFORMATION *** -->
<!-- ******************************************* -->
<ItemGroupDef OID="IG.TE"
Domain="TE"
Name="TE"
Repeating="Yes"
Purpose="Tabulation"
IsReferenceData="Yes"
SASDatasetName="TE"
def:Structure="One record per planned Element"
def:Class="Trial Design"
def:ArchiveLocationID="LF.TE">
<Description>
  <TranslatedText xml:lang="en">Trial Elements</TranslatedText>
</Description>
<ItemRef ItemOID="IT.TE.STUDYID"
OrderNumber="1"
Mandatory="Yes"
KeySequence="1"
Role="Identifier"
RoleCodeListOID="CL.rolecode"/>
<ItemRef ItemOID="IT.TE.DOMAIN"
OrderNumber="2"
Mandatory="Yes"
MethodOID="MT.SETDOMAIN"
Role="Identifier"
RoleCodeListOID="CL.rolecode"/>
<ItemRef ItemOID="IT.TE.ETCD"
OrderNumber="3"
Mandatory="Yes"
KeySequence="2"
MethodOID="MT.METADATAENTRY"
Role="Topic"
RoleCodeListOID="CL.rolecode"/>
<ItemRef ItemOID="IT.TE.ELEMENT"
OrderNumber="4"
Mandatory="Yes"
MethodOID="MT.METADATAENTRY"
Role="SynonymQualifier"
RoleCodeListOID="CL.rolecode"/>
<ItemRef ItemOID="IT.TE.TESTRL"
OrderNumber="5"
Mandatory="Yes"
MethodOID="MT.METADATAENTRY"
Role="Rule"
RoleCodeListOID="CL.rolecode"/>
<ItemRef ItemOID="IT.TE.TEENRL"
OrderNumber="6"
Mandatory="No"
MethodOID="MT.METADATAENTRY"
Role="Rule"
RoleCodeListOID="CL.rolecode"/>
<ItemRef ItemOID="IT.TE.TEDUR"
OrderNumber="7"
Mandatory="No"
MethodOID="MT.METADATAENTRY"
Role="Timing"
RoleCodeListOID="CL.rolecode"/>
 <!-- **************************************************** -->
      <!-- def:leaf details for hypertext linking the dataset   -->
      <!-- **************************************************** -->
<def:leaf ID="LF.TE" xlink:href="te.xpt">
    <def:title>te.xpt </def:title>
  </def:leaf>
</ItemGroupDef>
<!-- ******************************************* -->
<!-- TI             ItemGroupDef INFORMATION *** -->
<!-- ******************************************* -->
<ItemGroupDef OID="IG.TI"
Domain="TI"
Name="TI"
Repeating="Yes"
Purpose="Tabulation"
IsReferenceData="Yes"
SASDatasetName="TI"
def:Structure="One record per I/E criterion"
def:Class="Trial Design"
def:ArchiveLocationID="LF.TI">
<Description>
  <TranslatedText xml:lang="en">Trial Inclusion/Exclusion Criteria</TranslatedText>
</Description>
<ItemRef ItemOID="IT.TI.STUDYID"
OrderNumber="1"
Mandatory="Yes"
KeySequence="1"
Role="Identifier"
RoleCodeListOID="CL.rolecode"/>
<ItemRef ItemOID="IT.TI.DOMAIN"
OrderNumber="2"
Mandatory="Yes"
MethodOID="MT.SETDOMAIN"
Role="Identifier"
RoleCodeListOID="CL.rolecode"/>
<ItemRef ItemOID="IT.TI.IETESTCD"
OrderNumber="3"
Mandatory="Yes"
KeySequence="2"
MethodOID="MT.METADATAENTRY"
Role="Topic"
RoleCodeListOID="CL.rolecode"/>
<ItemRef ItemOID="IT.TI.IETEST"
OrderNumber="4"
Mandatory="Yes"
MethodOID="MT.METADATAENTRY"
Role="SynonymQualifier"
RoleCodeListOID="CL.rolecode"/>
<ItemRef ItemOID="IT.TI.IECAT"
OrderNumber="5"
Mandatory="Yes"
MethodOID="MT.METADATAENTRY"
Role="GroupingQualifier"
RoleCodeListOID="CL.rolecode"/>
 <!-- **************************************************** -->
      <!-- def:leaf details for hypertext linking the dataset   -->
      <!-- **************************************************** -->
<def:leaf ID="LF.TI" xlink:href="ti.xpt">
    <def:title>ti.xpt </def:title>
  </def:leaf>
</ItemGroupDef>
<!-- ******************************************* -->
<!-- TS             ItemGroupDef INFORMATION *** -->
<!-- ******************************************* -->
<ItemGroupDef OID="IG.TS"
Domain="TS"
Name="TS"
Repeating="Yes"
Purpose="Tabulation"
IsReferenceData="Yes"
SASDatasetName="TS"
def:Structure="One record per trial summary parameter value"
def:Class="Trial Design"
def:ArchiveLocationID="LF.TS">
<Description>
  <TranslatedText xml:lang="en">Trial Summary</TranslatedText>
</Description>
<ItemRef ItemOID="IT.TS.STUDYID"
OrderNumber="1"
Mandatory="Yes"
KeySequence="1"
Role="Identifier"
RoleCodeListOID="CL.rolecode"/>
<ItemRef ItemOID="IT.TS.DOMAIN"
OrderNumber="2"
Mandatory="Yes"
MethodOID="MT.SETDOMAIN"
Role="Identifier"
RoleCodeListOID="CL.rolecode"/>
<ItemRef ItemOID="IT.TS.TSSEQ"
OrderNumber="3"
Mandatory="Yes"
KeySequence="2"
MethodOID="MT.METADATAENTRY"
Role="Identifier"
RoleCodeListOID="CL.rolecode"/>
<ItemRef ItemOID="IT.TS.TSPARMCD"
OrderNumber="4"
Mandatory="Yes"
MethodOID="MT.METADATAENTRY"
Role="Topic"
RoleCodeListOID="CL.rolecode"/>
<ItemRef ItemOID="IT.TS.TSPARM"
OrderNumber="5"
Mandatory="Yes"
MethodOID="MT.METADATAENTRY"
Role="SynonymQualifier"
RoleCodeListOID="CL.rolecode"/>
<ItemRef ItemOID="IT.TS.TSVAL"
OrderNumber="6"
Mandatory="Yes"
MethodOID="MT.METADATAENTRY"
Role="ResultQualifier"
RoleCodeListOID="CL.rolecode"/>
<ItemRef ItemOID="IT.TS.TSVALCD"
OrderNumber="8"
Mandatory="Yes"
MethodOID="MT.METADATAENTRY"
Role="ResultQualifier"
RoleCodeListOID="CL.rolecode"/>
<ItemRef ItemOID="IT.TS.TSVCDREF"
OrderNumber="9"
Mandatory="Yes"
MethodOID="MT.METADATAENTRY"
Role="ResultQualifier"
RoleCodeListOID="CL.rolecode"/>
<ItemRef ItemOID="IT.TS.TSVCDVER"
OrderNumber="10"
Mandatory="Yes"
MethodOID="MT.METADATAENTRY"
Role="ResultQualifier"
RoleCodeListOID="CL.rolecode"/>
 <!-- **************************************************** -->
      <!-- def:leaf details for hypertext linking the dataset   -->
      <!-- **************************************************** -->
<def:leaf ID="LF.TS" xlink:href="ts.xpt">
    <def:title>ts.xpt </def:title>
  </def:leaf>
</ItemGroupDef>
<!-- ******************************************* -->
<!-- TV             ItemGroupDef INFORMATION *** -->
<!-- ******************************************* -->
<ItemGroupDef OID="IG.TV"
Domain="TV"
Name="TV"
Repeating="Yes"
Purpose="Tabulation"
IsReferenceData="Yes"
SASDatasetName="TV"
def:Structure="One record per planned Visit per Arm"
def:Class="Trial Design"
def:ArchiveLocationID="LF.TV">
<Description>
  <TranslatedText xml:lang="en">Trial Visits</TranslatedText>
</Description>
<ItemRef ItemOID="IT.TV.STUDYID"
OrderNumber="1"
Mandatory="Yes"
KeySequence="1"
Role="Identifier"
RoleCodeListOID="CL.rolecode"/>
<ItemRef ItemOID="IT.TV.DOMAIN"
OrderNumber="2"
Mandatory="Yes"
MethodOID="MT.SETDOMAIN"
Role="Identifier"
RoleCodeListOID="CL.rolecode"/>
<ItemRef ItemOID="IT.TV.VISITNUM"
OrderNumber="3"
Mandatory="Yes"
KeySequence="2"
MethodOID="MT.METADATAENTRY"
Role="Topic"
RoleCodeListOID="CL.rolecode"/>
<ItemRef ItemOID="IT.TV.VISIT"
OrderNumber="4"
Mandatory="No"
MethodOID="MT.METADATAENTRY"
Role="SynonymQualifier"
RoleCodeListOID="CL.rolecode"/>
<ItemRef ItemOID="IT.TV.ARMCD"
OrderNumber="5"
Mandatory="No"
KeySequence="3"
MethodOID="MT.METADATAENTRY"
Role="RecordQualifier"
RoleCodeListOID="CL.rolecode"/>
<ItemRef ItemOID="IT.TV.ARM"
OrderNumber="6"
Mandatory="No"
MethodOID="MT.METADATAENTRY"
Role="SynonymQualifier"
RoleCodeListOID="CL.rolecode"/>
<ItemRef ItemOID="IT.TV.TVSTRL"
OrderNumber="7"
Mandatory="Yes"
MethodOID="MT.METADATAENTRY"
Role="Rule"
RoleCodeListOID="CL.rolecode"/>
<ItemRef ItemOID="IT.TV.TVENRL"
OrderNumber="8"
Mandatory="No"
MethodOID="MT.METADATAENTRY"
Role="Rule"
RoleCodeListOID="CL.rolecode"/>
 <!-- **************************************************** -->
      <!-- def:leaf details for hypertext linking the dataset   -->
      <!-- **************************************************** -->
<def:leaf ID="LF.TV" xlink:href="tv.xpt">
    <def:title>tv.xpt </def:title>
  </def:leaf>
</ItemGroupDef>
<!-- ******************************************* -->
<!-- SUPPDM             ItemGroupDef INFORMATION *** -->
<!-- ******************************************* -->
<ItemGroupDef OID="IG.SUPPDM"
Domain="SUPPDM"
Name="SUPPDM"
Repeating="Yes"
Purpose="Tabulation"
IsReferenceData="No"
SASDatasetName="SUPPDM"
def:Structure="Supplemental Qualifier - One record per qualifier"
def:Class="Relationship"
def:ArchiveLocationID="LF.SUPPDM">
<Description>
  <TranslatedText xml:lang="en">DM - Supplemental Qualifiers</TranslatedText>
</Description>
<ItemRef ItemOID="IT.SUPPDM.STUDYID"
OrderNumber="1"
Mandatory="Yes"
KeySequence="1"
Role="NA"
RoleCodeListOID="CL.rolecode"/>
<ItemRef ItemOID="IT.SUPPDM.RDOMAIN"
OrderNumber="2"
Mandatory="Yes"
KeySequence="2"
MethodOID="MT.SETDOMAIN"
Role="NA"
RoleCodeListOID="CL.rolecode"/>
<ItemRef ItemOID="IT.SUPPDM.USUBJID"
OrderNumber="3"
Mandatory="Yes"
KeySequence="3"
Role="NA"
RoleCodeListOID="CL.rolecode"/>
<ItemRef ItemOID="IT.SUPPDM.IDVAR"
OrderNumber="4"
Mandatory="No"
KeySequence="4"
Role="NA"
RoleCodeListOID="CL.rolecode"/>
<ItemRef ItemOID="IT.SUPPDM.IDVARVAL"
OrderNumber="5"
Mandatory="No"
KeySequence="5"
Role="NA"
RoleCodeListOID="CL.rolecode"/>
<ItemRef ItemOID="IT.SUPPDM.QNAM"
OrderNumber="6"
Mandatory="Yes"
KeySequence="6"
Role="NA"
RoleCodeListOID="CL.rolecode"/>
<ItemRef ItemOID="IT.SUPPDM.QLABEL"
OrderNumber="7"
Mandatory="Yes"
Role="NA"
RoleCodeListOID="CL.rolecode"/>
<ItemRef ItemOID="IT.SUPPDM.QVAL"
OrderNumber="8"
Mandatory="Yes"
Role="NA"
RoleCodeListOID="CL.rolecode"/>
<ItemRef ItemOID="IT.SUPPDM.QORIG"
OrderNumber="9"
Mandatory="Yes"
MethodOID="MT.SETNULL"
Role="NA"
RoleCodeListOID="CL.rolecode"/>
<ItemRef ItemOID="IT.SUPPDM.QEVAL"
OrderNumber="10"
Mandatory="No"
MethodOID="MT.SETNULL"
Role="NA"
RoleCodeListOID="CL.rolecode"/>
 <!-- **************************************************** -->
      <!-- def:leaf details for hypertext linking the dataset   -->
      <!-- **************************************************** -->
<def:leaf ID="LF.SUPPDM" xlink:href="suppdm.xpt">
    <def:title>suppdm.xpt </def:title>
  </def:leaf>
</ItemGroupDef>
<!-- ************************************************************ -->
  <!-- The details of each variable is here for all domains         -->
  <!-- ************************************************************ -->
<ItemDef OID="IT.AE.STUDYID"
  Name="STUDYID"
  SASFieldName="STUDYID"
  DataType="text"
  Length="15"
  def:DisplayFormat="15"
  >
  <Description>
      <TranslatedText xml:lang="en">Study Identifier</TranslatedText>
  </Description>
  <def:Origin Type="Assigned"></def:Origin>
  
</ItemDef>

<ItemDef OID="IT.AE.DOMAIN"
  Name="DOMAIN"
  SASFieldName="DOMAIN"
  DataType="text"
  Length="2"
  def:DisplayFormat="2"
  >
  <Description>
      <TranslatedText xml:lang="en">Domain Abbreviation</TranslatedText>
  </Description>
  <def:Origin Type="Derived"></def:Origin>
  
</ItemDef>

<ItemDef OID="IT.AE.USUBJID"
  Name="USUBJID"
  SASFieldName="USUBJID"
  DataType="text"
  Length="25"
  def:DisplayFormat="25"
  >
  <Description>
      <TranslatedText xml:lang="en">Unique Subject Identifier</TranslatedText>
  </Description>
  <def:Origin Type="Assigned"></def:Origin>
  
</ItemDef>

<ItemDef OID="IT.AE.AESEQ"
  Name="AESEQ"
  SASFieldName="AESEQ"
  DataType="integer"
  Length="8"
  def:DisplayFormat="8"
  >
  <Description>
      <TranslatedText xml:lang="en">Sequence Number</TranslatedText>
  </Description>
  <def:Origin Type="Derived"></def:Origin>
  
</ItemDef>

<ItemDef OID="IT.AE.AETERM"
  Name="AETERM"
  SASFieldName="AETERM"
  DataType="text"
  Length="200"
  def:DisplayFormat="200"
  >
  <Description>
      <TranslatedText xml:lang="en">Reported Term for the Adverse Event</TranslatedText>
  </Description>
  <def:Origin Type="CRF">
   <def:DocumentRef leafID="LF.blankcrf">
   <def:PDFPageRef PageRefs="6" Type="PhysicalRef"/>
   </def:DocumentRef>
</def:Origin>

  
</ItemDef>

<ItemDef OID="IT.AE.AELLT"
  Name="AELLT"
  SASFieldName="AELLT"
  DataType="text"
  Length="200"
  def:DisplayFormat="200"
  >
  <Description>
      <TranslatedText xml:lang="en">Lowest Level Term</TranslatedText>
  </Description>
  <def:Origin Type="Assigned"></def:Origin>
  
</ItemDef>

<ItemDef OID="IT.AE.AELLTCD"
  Name="AELLTCD"
  SASFieldName="AELLTCD"
  DataType="integer"
  Length="8"
  def:DisplayFormat="8"
  >
  <Description>
      <TranslatedText xml:lang="en">Lowest Level Term Code</TranslatedText>
  </Description>
  <def:Origin Type="Assigned"></def:Origin>
  
</ItemDef>

<ItemDef OID="IT.AE.AEDECOD"
  Name="AEDECOD"
  SASFieldName="AEDECOD"
  DataType="text"
  Length="200"
  def:DisplayFormat="200"
  >
  <Description>
      <TranslatedText xml:lang="en">Dictionary-Derived Term</TranslatedText>
  </Description><CodeListRef CodeListOID="CL.AEDECOD"/>

  <def:Origin Type="Assigned"></def:Origin>
  
</ItemDef>

<ItemDef OID="IT.AE.AEPTCD"
  Name="AEPTCD"
  SASFieldName="AEPTCD"
  DataType="integer"
  Length="8"
  def:DisplayFormat="8"
  >
  <Description>
      <TranslatedText xml:lang="en">Preferred Term Code</TranslatedText>
  </Description>
  <def:Origin Type="Assigned"></def:Origin>
  
</ItemDef>

<ItemDef OID="IT.AE.AEHLT"
  Name="AEHLT"
  SASFieldName="AEHLT"
  DataType="text"
  Length="200"
  def:DisplayFormat="200"
  >
  <Description>
      <TranslatedText xml:lang="en">High Level Term</TranslatedText>
  </Description>
  <def:Origin Type="Assigned"></def:Origin>
  
</ItemDef>

<ItemDef OID="IT.AE.AEHLTCD"
  Name="AEHLTCD"
  SASFieldName="AEHLTCD"
  DataType="integer"
  Length="8"
  def:DisplayFormat="8"
  >
  <Description>
      <TranslatedText xml:lang="en">High Level Term Code</TranslatedText>
  </Description>
  <def:Origin Type="Assigned"></def:Origin>
  
</ItemDef>

<ItemDef OID="IT.AE.AEHLGT"
  Name="AEHLGT"
  SASFieldName="AEHLGT"
  DataType="text"
  Length="200"
  def:DisplayFormat="200"
  >
  <Description>
      <TranslatedText xml:lang="en">High Level Group Term</TranslatedText>
  </Description>
  <def:Origin Type="Assigned"></def:Origin>
  
</ItemDef>

<ItemDef OID="IT.AE.AEHLGTCD"
  Name="AEHLGTCD"
  SASFieldName="AEHLGTCD"
  DataType="integer"
  Length="8"
  def:DisplayFormat="8"
  >
  <Description>
      <TranslatedText xml:lang="en">High Level Group Term Code</TranslatedText>
  </Description>
  <def:Origin Type="Assigned"></def:Origin>
  
</ItemDef>

<ItemDef OID="IT.AE.AEBODSYS"
  Name="AEBODSYS"
  SASFieldName="AEBODSYS"
  DataType="text"
  Length="200"
  def:DisplayFormat="200"
  >
  <Description>
      <TranslatedText xml:lang="en">Body System or Organ Class</TranslatedText>
  </Description><CodeListRef CodeListOID="CL.AEBODSYS"/>

  <def:Origin Type="Assigned"></def:Origin>
  
</ItemDef>

<ItemDef OID="IT.AE.AEBDSYCD"
  Name="AEBDSYCD"
  SASFieldName="AEBDSYCD"
  DataType="integer"
  Length="8"
  def:DisplayFormat="8"
  >
  <Description>
      <TranslatedText xml:lang="en">Body System or Organ Class Code</TranslatedText>
  </Description>
  <def:Origin Type="Assigned"></def:Origin>
  
</ItemDef>

<ItemDef OID="IT.AE.AESOC"
  Name="AESOC"
  SASFieldName="AESOC"
  DataType="text"
  Length="200"
  def:DisplayFormat="200"
  >
  <Description>
      <TranslatedText xml:lang="en">Primary System Organ Class</TranslatedText>
  </Description>
  <def:Origin Type="Assigned"></def:Origin>
  
</ItemDef>

<ItemDef OID="IT.AE.AESOCCD"
  Name="AESOCCD"
  SASFieldName="AESOCCD"
  DataType="integer"
  Length="8"
  def:DisplayFormat="8"
  >
  <Description>
      <TranslatedText xml:lang="en">Primary System Organ Class Code</TranslatedText>
  </Description>
  <def:Origin Type="Assigned"></def:Origin>
  
</ItemDef>

<ItemDef OID="IT.AE.AESEV"
  Name="AESEV"
  SASFieldName="AESEV"
  DataType="text"
  Length="20"
  def:DisplayFormat="20"
  >
  <Description>
      <TranslatedText xml:lang="en">Severity</TranslatedText>
  </Description><CodeListRef CodeListOID="CL.AESEV"/>

  <def:Origin Type="CRF">
   <def:DocumentRef leafID="LF.blankcrf">
   <def:PDFPageRef PageRefs="6" Type="PhysicalRef"/>
   </def:DocumentRef>
</def:Origin>

  
</ItemDef>

<ItemDef OID="IT.AE.AESER"
  Name="AESER"
  SASFieldName="AESER"
  DataType="text"
  Length="2"
  def:DisplayFormat="2"
  >
  <Description>
      <TranslatedText xml:lang="en">Serious Event</TranslatedText>
  </Description><CodeListRef CodeListOID="CL.NY"/>

  <def:Origin Type="CRF">
   <def:DocumentRef leafID="LF.blankcrf">
   <def:PDFPageRef PageRefs="6" Type="PhysicalRef"/>
   </def:DocumentRef>
</def:Origin>

  
</ItemDef>

<ItemDef OID="IT.AE.AEACN"
  Name="AEACN"
  SASFieldName="AEACN"
  DataType="text"
  Length="40"
  def:DisplayFormat="40"
  >
  <Description>
      <TranslatedText xml:lang="en">Action Taken with Study Treatment</TranslatedText>
  </Description><CodeListRef CodeListOID="CL.ACN"/>

  <def:Origin Type="CRF">
   <def:DocumentRef leafID="LF.blankcrf">
   <def:PDFPageRef PageRefs="6" Type="PhysicalRef"/>
   </def:DocumentRef>
</def:Origin>

  
</ItemDef>

<ItemDef OID="IT.AE.AEREL"
  Name="AEREL"
  SASFieldName="AEREL"
  DataType="text"
  Length="40"
  def:DisplayFormat="40"
  >
  <Description>
      <TranslatedText xml:lang="en">Causality</TranslatedText>
  </Description><CodeListRef CodeListOID="CL.AEREL"/>

  <def:Origin Type="CRF">
   <def:DocumentRef leafID="LF.blankcrf">
   <def:PDFPageRef PageRefs="6" Type="PhysicalRef"/>
   </def:DocumentRef>
</def:Origin>

  
</ItemDef>

<ItemDef OID="IT.AE.AESLIFE"
  Name="AESLIFE"
  SASFieldName="AESLIFE"
  DataType="text"
  Length="2"
  def:DisplayFormat="2"
  >
  <Description>
      <TranslatedText xml:lang="en">Is Life Threatening</TranslatedText>
  </Description><CodeListRef CodeListOID="CL.NY"/>

  <def:Origin Type="CRF">
   <def:DocumentRef leafID="LF.blankcrf">
   <def:PDFPageRef PageRefs="6" Type="PhysicalRef"/>
   </def:DocumentRef>
</def:Origin>

  
</ItemDef>

<ItemDef OID="IT.AE.EPOCH"
  Name="EPOCH"
  SASFieldName="EPOCH"
  DataType="text"
  Length="40"
  def:DisplayFormat="40"
  >
  <Description>
      <TranslatedText xml:lang="en">Epoch</TranslatedText>
  </Description><CodeListRef CodeListOID="CL.EPOCH"/>

  <def:Origin Type="Derived"></def:Origin>
  
</ItemDef>

<ItemDef OID="IT.AE.AESTDTC"
  Name="AESTDTC"
  SASFieldName="AESTDTC"
  DataType="date"
  Length="16"
  def:DisplayFormat="16"
  >
  <Description>
      <TranslatedText xml:lang="en">Start Date/Time of Adverse Event</TranslatedText>
  </Description>
  <def:Origin Type="CRF">
   <def:DocumentRef leafID="LF.blankcrf">
   <def:PDFPageRef PageRefs="6" Type="PhysicalRef"/>
   </def:DocumentRef>
</def:Origin>

  
</ItemDef>

<ItemDef OID="IT.AE.AEENDTC"
  Name="AEENDTC"
  SASFieldName="AEENDTC"
  DataType="date"
  Length="16"
  def:DisplayFormat="16"
  >
  <Description>
      <TranslatedText xml:lang="en">End Date/Time of Adverse Event</TranslatedText>
  </Description>
  <def:Origin Type="CRF">
   <def:DocumentRef leafID="LF.blankcrf">
   <def:PDFPageRef PageRefs="6" Type="PhysicalRef"/>
   </def:DocumentRef>
</def:Origin>

  
</ItemDef>

<ItemDef OID="IT.AE.AESTDY"
  Name="AESTDY"
  SASFieldName="AESTDY"
  DataType="integer"
  Length="8"
  def:DisplayFormat="8"
  >
  <Description>
      <TranslatedText xml:lang="en">Study Day of Start of Adverse Event</TranslatedText>
  </Description>
  <def:Origin Type="Derived"></def:Origin>
  
</ItemDef>

<ItemDef OID="IT.AE.AEENDY"
  Name="AEENDY"
  SASFieldName="AEENDY"
  DataType="integer"
  Length="8"
  def:DisplayFormat="8"
  >
  <Description>
      <TranslatedText xml:lang="en">Study Day of End of Adverse Event</TranslatedText>
  </Description>
  <def:Origin Type="Derived"></def:Origin>
  
</ItemDef>

<ItemDef OID="IT.DM.STUDYID"
  Name="STUDYID"
  SASFieldName="STUDYID"
  DataType="text"
  Length="15"
  def:DisplayFormat="15"
  >
  <Description>
      <TranslatedText xml:lang="en">Study Identifier</TranslatedText>
  </Description>
  <def:Origin Type="Assigned"></def:Origin>
  
</ItemDef>

<ItemDef OID="IT.DM.DOMAIN"
  Name="DOMAIN"
  SASFieldName="DOMAIN"
  DataType="text"
  Length="2"
  def:DisplayFormat="2"
  >
  <Description>
      <TranslatedText xml:lang="en">Domain Abbreviation</TranslatedText>
  </Description>
  <def:Origin Type="Derived"></def:Origin>
  
</ItemDef>

<ItemDef OID="IT.DM.USUBJID"
  Name="USUBJID"
  SASFieldName="USUBJID"
  DataType="text"
  Length="25"
  def:DisplayFormat="25"
  >
  <Description>
      <TranslatedText xml:lang="en">Unique Subject Identifier</TranslatedText>
  </Description>
  <def:Origin Type="Assigned"></def:Origin>
  
</ItemDef>

<ItemDef OID="IT.DM.SUBJID"
  Name="SUBJID"
  SASFieldName="SUBJID"
  DataType="text"
  Length="7"
  def:DisplayFormat="7"
  >
  <Description>
      <TranslatedText xml:lang="en">Subject Identifier for the Study</TranslatedText>
  </Description>
  <def:Origin Type="Assigned"></def:Origin>
  
</ItemDef>

<ItemDef OID="IT.DM.RFSTDTC"
  Name="RFSTDTC"
  SASFieldName="RFSTDTC"
  DataType="date"
  Length="16"
  def:DisplayFormat="16"
  >
  <Description>
      <TranslatedText xml:lang="en">Subject Reference Start Date/Time</TranslatedText>
  </Description>
  <def:Origin Type="CRF">
   <def:DocumentRef leafID="LF.blankcrf">
   <def:PDFPageRef PageRefs="1" Type="PhysicalRef"/>
   </def:DocumentRef>
</def:Origin>

  
</ItemDef>

<ItemDef OID="IT.DM.RFENDTC"
  Name="RFENDTC"
  SASFieldName="RFENDTC"
  DataType="date"
  Length="16"
  def:DisplayFormat="16"
  >
  <Description>
      <TranslatedText xml:lang="en">Subject Reference End Date/Time</TranslatedText>
  </Description>
  <def:Origin Type="Derived"></def:Origin>
  
</ItemDef>

<ItemDef OID="IT.DM.RFXSTDTC"
  Name="RFXSTDTC"
  SASFieldName="RFXSTDTC"
  DataType="date"
  Length="16"
  def:DisplayFormat="16"
  >
  <Description>
      <TranslatedText xml:lang="en">Date/Time of First Study Treatment</TranslatedText>
  </Description>
  <def:Origin Type="CRF">
   <def:DocumentRef leafID="LF.blankcrf">
   <def:PDFPageRef PageRefs="4" Type="PhysicalRef"/>
   </def:DocumentRef>
</def:Origin>

  
</ItemDef>

<ItemDef OID="IT.DM.RFXENDTC"
  Name="RFXENDTC"
  SASFieldName="RFXENDTC"
  DataType="date"
  Length="16"
  def:DisplayFormat="16"
  >
  <Description>
      <TranslatedText xml:lang="en">Date/Time of Last Study Treatment</TranslatedText>
  </Description>
  <def:Origin Type="CRF">
   <def:DocumentRef leafID="LF.blankcrf">
   <def:PDFPageRef PageRefs="4" Type="PhysicalRef"/>
   </def:DocumentRef>
</def:Origin>

  
</ItemDef>

<ItemDef OID="IT.DM.RFICDTC"
  Name="RFICDTC"
  SASFieldName="RFICDTC"
  DataType="date"
  Length="16"
  def:DisplayFormat="16"
  >
  <Description>
      <TranslatedText xml:lang="en">Date/Time of Informed Consent</TranslatedText>
  </Description>
  <def:Origin Type="CRF">
   <def:DocumentRef leafID="LF.blankcrf">
   <def:PDFPageRef PageRefs="1" Type="PhysicalRef"/>
   </def:DocumentRef>
</def:Origin>

  
</ItemDef>

<ItemDef OID="IT.DM.RFPENDTC"
  Name="RFPENDTC"
  SASFieldName="RFPENDTC"
  DataType="date"
  Length="16"
  def:DisplayFormat="16"
  >
  <Description>
      <TranslatedText xml:lang="en">Date/Time of End of Participation</TranslatedText>
  </Description>
  <def:Origin Type="CRF">
   <def:DocumentRef leafID="LF.blankcrf">
   <def:PDFPageRef PageRefs="30" Type="PhysicalRef"/>
   </def:DocumentRef>
</def:Origin>

  
</ItemDef>

<ItemDef OID="IT.DM.DTHDTC"
  Name="DTHDTC"
  SASFieldName="DTHDTC"
  DataType="date"
  Length="16"
  def:DisplayFormat="16"
  >
  <Description>
      <TranslatedText xml:lang="en">Date/Time of Death</TranslatedText>
  </Description>
  <def:Origin Type="Derived"></def:Origin>
  
</ItemDef>

<ItemDef OID="IT.DM.DTHFL"
  Name="DTHFL"
  SASFieldName="DTHFL"
  DataType="text"
  Length="2"
  def:DisplayFormat="2"
  >
  <Description>
      <TranslatedText xml:lang="en">Subject Death Flag</TranslatedText>
  </Description>
  <def:Origin Type="Derived"></def:Origin>
  
</ItemDef>

<ItemDef OID="IT.DM.SITEID"
  Name="SITEID"
  SASFieldName="SITEID"
  DataType="text"
  Length="7"
  def:DisplayFormat="7"
  >
  <Description>
      <TranslatedText xml:lang="en">Study Site Identifier</TranslatedText>
  </Description>
  <def:Origin Type="Assigned"></def:Origin>
  
</ItemDef>

<ItemDef OID="IT.DM.BRTHDTC"
  Name="BRTHDTC"
  SASFieldName="BRTHDTC"
  DataType="date"
  Length="16"
  def:DisplayFormat="16"
  >
  <Description>
      <TranslatedText xml:lang="en">Date/Time of Birth</TranslatedText>
  </Description>
  <def:Origin Type="CRF">
   <def:DocumentRef leafID="LF.blankcrf">
   <def:PDFPageRef PageRefs="1" Type="PhysicalRef"/>
   </def:DocumentRef>
</def:Origin>

  
</ItemDef>

<ItemDef OID="IT.DM.AGE"
  Name="AGE"
  SASFieldName="AGE"
  DataType="integer"
  Length="8"
  def:DisplayFormat="3.0"
  >
  <Description>
      <TranslatedText xml:lang="en">Age</TranslatedText>
  </Description>
  <def:Origin Type="Derived"></def:Origin>
  
</ItemDef>

<ItemDef OID="IT.DM.AGEU"
  Name="AGEU"
  SASFieldName="AGEU"
  DataType="text"
  Length="10"
  def:DisplayFormat="10"
  >
  <Description>
      <TranslatedText xml:lang="en">Age Units</TranslatedText>
  </Description><CodeListRef CodeListOID="CL.AGEU"/>

  <def:Origin Type="Derived"></def:Origin>
  
</ItemDef>

<ItemDef OID="IT.DM.SEX"
  Name="SEX"
  SASFieldName="SEX"
  DataType="text"
  Length="2"
  def:DisplayFormat="2"
  >
  <Description>
      <TranslatedText xml:lang="en">Sex</TranslatedText>
  </Description><CodeListRef CodeListOID="CL.SEX"/>

  <def:Origin Type="CRF">
   <def:DocumentRef leafID="LF.blankcrf">
   <def:PDFPageRef PageRefs="1" Type="PhysicalRef"/>
   </def:DocumentRef>
</def:Origin>

  
</ItemDef>

<ItemDef OID="IT.DM.RACE"
  Name="RACE"
  SASFieldName="RACE"
  DataType="text"
  Length="80"
  def:DisplayFormat="80"
  >
  <Description>
      <TranslatedText xml:lang="en">Race</TranslatedText>
  </Description><CodeListRef CodeListOID="CL.RACE"/>

  <def:Origin Type="CRF">
   <def:DocumentRef leafID="LF.blankcrf">
   <def:PDFPageRef PageRefs="1" Type="PhysicalRef"/>
   </def:DocumentRef>
</def:Origin>

  
</ItemDef>

<ItemDef OID="IT.DM.ARMCD"
  Name="ARMCD"
  SASFieldName="ARMCD"
  DataType="text"
  Length="8"
  def:DisplayFormat="8"
def:CommentOID="COM.COM.ARMCD"
  >
  <Description>
      <TranslatedText xml:lang="en">Planned Arm Code</TranslatedText>
  </Description><CodeListRef CodeListOID="CL.ARMCD"/>

  <def:Origin Type="eDT"></def:Origin>
  
</ItemDef>

<ItemDef OID="IT.DM.ARM"
  Name="ARM"
  SASFieldName="ARM"
  DataType="text"
  Length="40"
  def:DisplayFormat="40"
  >
  <Description>
      <TranslatedText xml:lang="en">Description of Planned Arm</TranslatedText>
  </Description><CodeListRef CodeListOID="CL.ARM"/>

  <def:Origin Type="eDT"></def:Origin>
  
</ItemDef>

<ItemDef OID="IT.DM.ACTARMCD"
  Name="ACTARMCD"
  SASFieldName="ACTARMCD"
  DataType="text"
  Length="8"
  def:DisplayFormat="8"
  >
  <Description>
      <TranslatedText xml:lang="en">Actual Arm Code</TranslatedText>
  </Description><CodeListRef CodeListOID="CL.ARMCD"/>

  <def:Origin Type="eDT"></def:Origin>
  
</ItemDef>

<ItemDef OID="IT.DM.ACTARM"
  Name="ACTARM"
  SASFieldName="ACTARM"
  DataType="text"
  Length="40"
  def:DisplayFormat="40"
  >
  <Description>
      <TranslatedText xml:lang="en">Description of Actual Arm</TranslatedText>
  </Description><CodeListRef CodeListOID="CL.ARM"/>

  <def:Origin Type="eDT"></def:Origin>
  
</ItemDef>

<ItemDef OID="IT.DM.COUNTRY"
  Name="COUNTRY"
  SASFieldName="COUNTRY"
  DataType="text"
  Length="3"
  def:DisplayFormat="3"
  >
  <Description>
      <TranslatedText xml:lang="en">Country</TranslatedText>
  </Description><CodeListRef CodeListOID="CL.COUNTRY"/>

  <def:Origin Type="Derived"></def:Origin>
  
</ItemDef>

<ItemDef OID="IT.EX.STUDYID"
  Name="STUDYID"
  SASFieldName="STUDYID"
  DataType="text"
  Length="15"
  def:DisplayFormat="15"
  >
  <Description>
      <TranslatedText xml:lang="en">Study Identifier</TranslatedText>
  </Description>
  <def:Origin Type="Assigned"></def:Origin>
  
</ItemDef>

<ItemDef OID="IT.EX.DOMAIN"
  Name="DOMAIN"
  SASFieldName="DOMAIN"
  DataType="text"
  Length="2"
  def:DisplayFormat="2"
  >
  <Description>
      <TranslatedText xml:lang="en">Domain Abbreviation</TranslatedText>
  </Description>
  <def:Origin Type="Derived"></def:Origin>
  
</ItemDef>

<ItemDef OID="IT.EX.USUBJID"
  Name="USUBJID"
  SASFieldName="USUBJID"
  DataType="text"
  Length="25"
  def:DisplayFormat="25"
  >
  <Description>
      <TranslatedText xml:lang="en">Unique Subject Identifier</TranslatedText>
  </Description>
  <def:Origin Type="Assigned"></def:Origin>
  
</ItemDef>

<ItemDef OID="IT.EX.EXSEQ"
  Name="EXSEQ"
  SASFieldName="EXSEQ"
  DataType="integer"
  Length="8"
  def:DisplayFormat="8"
  >
  <Description>
      <TranslatedText xml:lang="en">Sequence Number</TranslatedText>
  </Description>
  <def:Origin Type="Derived"></def:Origin>
  
</ItemDef>

<ItemDef OID="IT.EX.EXTRT"
  Name="EXTRT"
  SASFieldName="EXTRT"
  DataType="text"
  Length="200"
  def:DisplayFormat="200"
  >
  <Description>
      <TranslatedText xml:lang="en">Name of Actual Treatment</TranslatedText>
  </Description>
  <def:Origin Type="Derived"></def:Origin>
  
</ItemDef>

<ItemDef OID="IT.EX.EXDOSE"
  Name="EXDOSE"
  SASFieldName="EXDOSE"
  DataType="integer"
  Length="8"
  def:DisplayFormat="8"
  >
  <Description>
      <TranslatedText xml:lang="en">Dose</TranslatedText>
  </Description>
  <def:Origin Type="CRF">
   <def:DocumentRef leafID="LF.blankcrf">
   <def:PDFPageRef PageRefs="4" Type="PhysicalRef"/>
   </def:DocumentRef>
</def:Origin>

  
</ItemDef>

<ItemDef OID="IT.EX.EXDOSU"
  Name="EXDOSU"
  SASFieldName="EXDOSU"
  DataType="text"
  Length="40"
  def:DisplayFormat="40"
  >
  <Description>
      <TranslatedText xml:lang="en">Dose Units</TranslatedText>
  </Description><CodeListRef CodeListOID="CL.UNIT"/>

  <def:Origin Type="Derived"></def:Origin>
  
</ItemDef>

<ItemDef OID="IT.EX.EXDOSFRM"
  Name="EXDOSFRM"
  SASFieldName="EXDOSFRM"
  DataType="text"
  Length="80"
  def:DisplayFormat="80"
  >
  <Description>
      <TranslatedText xml:lang="en">Dose Form</TranslatedText>
  </Description><CodeListRef CodeListOID="CL.FRM"/>

  <def:Origin Type="Derived"></def:Origin>
  
</ItemDef>

<ItemDef OID="IT.EX.EPOCH"
  Name="EPOCH"
  SASFieldName="EPOCH"
  DataType="text"
  Length="40"
  def:DisplayFormat="40"
  >
  <Description>
      <TranslatedText xml:lang="en">Epoch</TranslatedText>
  </Description><CodeListRef CodeListOID="CL.EPOCH"/>

  <def:Origin Type="Derived"></def:Origin>
  
</ItemDef>

<ItemDef OID="IT.EX.EXSTDTC"
  Name="EXSTDTC"
  SASFieldName="EXSTDTC"
  DataType="date"
  Length="16"
  def:DisplayFormat="16"
  >
  <Description>
      <TranslatedText xml:lang="en">Start Date/Time of Treatment</TranslatedText>
  </Description>
  <def:Origin Type="CRF">
   <def:DocumentRef leafID="LF.blankcrf">
   <def:PDFPageRef PageRefs="4" Type="PhysicalRef"/>
   </def:DocumentRef>
</def:Origin>

  
</ItemDef>

<ItemDef OID="IT.EX.EXENDTC"
  Name="EXENDTC"
  SASFieldName="EXENDTC"
  DataType="date"
  Length="16"
  def:DisplayFormat="16"
  >
  <Description>
      <TranslatedText xml:lang="en">End Date/Time of Treatment</TranslatedText>
  </Description>
  <def:Origin Type="CRF">
   <def:DocumentRef leafID="LF.blankcrf">
   <def:PDFPageRef PageRefs="4" Type="PhysicalRef"/>
   </def:DocumentRef>
</def:Origin>

  
</ItemDef>

<ItemDef OID="IT.EX.EXSTDY"
  Name="EXSTDY"
  SASFieldName="EXSTDY"
  DataType="integer"
  Length="8"
  def:DisplayFormat="8"
  >
  <Description>
      <TranslatedText xml:lang="en">Study Day of Start of Treatment</TranslatedText>
  </Description>
  <def:Origin Type="Derived"></def:Origin>
  
</ItemDef>

<ItemDef OID="IT.EX.EXENDY"
  Name="EXENDY"
  SASFieldName="EXENDY"
  DataType="integer"
  Length="8"
  def:DisplayFormat="8"
  >
  <Description>
      <TranslatedText xml:lang="en">Study Day of End of Treatment</TranslatedText>
  </Description>
  <def:Origin Type="Derived"></def:Origin>
  
</ItemDef>

<ItemDef OID="IT.SUPPDM.STUDYID"
  Name="STUDYID"
  SASFieldName="STUDYID"
  DataType="text"
  Length="15"
  def:DisplayFormat="15"
  >
  <Description>
      <TranslatedText xml:lang="en">Study Identifier</TranslatedText>
  </Description>
  <def:Origin Type="Assigned"></def:Origin>
  
</ItemDef>

<ItemDef OID="IT.SUPPDM.RDOMAIN"
  Name="RDOMAIN"
  SASFieldName="RDOMAIN"
  DataType="text"
  Length="2"
  def:DisplayFormat="2"
  >
  <Description>
      <TranslatedText xml:lang="en">Related Domain Abbreviation</TranslatedText>
  </Description>
  <def:Origin Type="Derived"></def:Origin>
  
</ItemDef>

<ItemDef OID="IT.SUPPDM.USUBJID"
  Name="USUBJID"
  SASFieldName="USUBJID"
  DataType="text"
  Length="25"
  def:DisplayFormat="25"
  >
  <Description>
      <TranslatedText xml:lang="en">Unique Subject Identifier</TranslatedText>
  </Description>
  <def:Origin Type="Assigned"></def:Origin>
  
</ItemDef>

<ItemDef OID="IT.SUPPDM.IDVAR"
  Name="IDVAR"
  SASFieldName="IDVAR"
  DataType="text"
  Length="8"
  def:DisplayFormat="8"
  >
  <Description>
      <TranslatedText xml:lang="en">Identifying Variable</TranslatedText>
  </Description>
  <def:Origin Type="Assigned"></def:Origin>
  
</ItemDef>

<ItemDef OID="IT.SUPPDM.IDVARVAL"
  Name="IDVARVAL"
  SASFieldName="IDVARVAL"
  DataType="text"
  Length="200"
  def:DisplayFormat="200"
  >
  <Description>
      <TranslatedText xml:lang="en">Identifying Variable Value</TranslatedText>
  </Description>
  <def:Origin Type="Assigned"></def:Origin>
  
</ItemDef>

<ItemDef OID="IT.SUPPDM.QNAM"
  Name="QNAM"
  SASFieldName="QNAM"
  DataType="text"
  Length="8"
  def:DisplayFormat="8"
  >
  <Description>
      <TranslatedText xml:lang="en">Qualifier Variable Name</TranslatedText>
  </Description>
  <def:Origin Type="Assigned"></def:Origin>
  
</ItemDef>

<ItemDef OID="IT.SUPPDM.QLABEL"
  Name="QLABEL"
  SASFieldName="QLABEL"
  DataType="text"
  Length="40"
  def:DisplayFormat="40"
  >
  <Description>
      <TranslatedText xml:lang="en">Qualifier Variable Label</TranslatedText>
  </Description>
  <def:Origin Type="Assigned"></def:Origin>
  
</ItemDef>

<ItemDef OID="IT.SUPPDM.QVAL"
  Name="QVAL"
  SASFieldName="QVAL"
  DataType="text"
  Length="200"
  def:DisplayFormat="200"
  >
  <Description>
      <TranslatedText xml:lang="en">Data Value</TranslatedText>
  </Description>
  
  <def:ValueListRef ValueListOID="VL.SUPPDM.QVAL"/>

</ItemDef>
<ItemDef OID="IT.SUPPDM.QVAL.RACEOTH"
  Name="QVAL"
  SASFieldName="QVAL"
  DataType="text"
  Length="20"
  def:DisplayFormat="20"
  >
  <Description>
      <TranslatedText xml:lang="en">Race, Other</TranslatedText>
  </Description>
  <def:Origin Type="Derived"></def:Origin>
</ItemDef>
<ItemDef OID="IT.SUPPDM.QVAL.RANDDTC"
  Name="QVAL"
  SASFieldName="QVAL"
  DataType="text"
  Length="10"
  def:DisplayFormat="10"
  >
  <Description>
      <TranslatedText xml:lang="en">Randomization Date</TranslatedText>
  </Description>
  <def:Origin Type="Derived"></def:Origin>
</ItemDef>

<ItemDef OID="IT.SUPPDM.QORIG"
  Name="QORIG"
  SASFieldName="QORIG"
  DataType="text"
  Length="20"
  def:DisplayFormat="20"
  >
  <Description>
      <TranslatedText xml:lang="en">Origin</TranslatedText>
  </Description>
  <def:Origin Type="Derived"></def:Origin>
  
</ItemDef>

<ItemDef OID="IT.SUPPDM.QEVAL"
  Name="QEVAL"
  SASFieldName="QEVAL"
  DataType="text"
  Length="8"
  def:DisplayFormat="8"
  >
  <Description>
      <TranslatedText xml:lang="en">Evaluator</TranslatedText>
  </Description>
  <def:Origin Type="Derived"></def:Origin>
  
</ItemDef>

<ItemDef OID="IT.LB.STUDYID"
  Name="STUDYID"
  SASFieldName="STUDYID"
  DataType="text"
  Length="15"
  def:DisplayFormat="15"
  >
  <Description>
      <TranslatedText xml:lang="en">Study Identifier</TranslatedText>
  </Description>
  <def:Origin Type="Assigned"></def:Origin>
  
</ItemDef>

<ItemDef OID="IT.LB.DOMAIN"
  Name="DOMAIN"
  SASFieldName="DOMAIN"
  DataType="text"
  Length="2"
  def:DisplayFormat="2"
  >
  <Description>
      <TranslatedText xml:lang="en">Domain Abbreviation</TranslatedText>
  </Description>
  <def:Origin Type="Derived"></def:Origin>
  
</ItemDef>

<ItemDef OID="IT.LB.USUBJID"
  Name="USUBJID"
  SASFieldName="USUBJID"
  DataType="text"
  Length="25"
  def:DisplayFormat="25"
  >
  <Description>
      <TranslatedText xml:lang="en">Unique Subject Identifier</TranslatedText>
  </Description>
  <def:Origin Type="Assigned"></def:Origin>
  
</ItemDef>

<ItemDef OID="IT.LB.LBSEQ"
  Name="LBSEQ"
  SASFieldName="LBSEQ"
  DataType="integer"
  Length="8"
  def:DisplayFormat="8"
  >
  <Description>
      <TranslatedText xml:lang="en">Sequence Number</TranslatedText>
  </Description>
  <def:Origin Type="Derived"></def:Origin>
  
</ItemDef>

<ItemDef OID="IT.LB.LBTESTCD"
  Name="LBTESTCD"
  SASFieldName="LBTESTCD"
  DataType="text"
  Length="8"
  def:DisplayFormat="8"
  >
  <Description>
      <TranslatedText xml:lang="en">Lab Test or Examination Short Name</TranslatedText>
  </Description><CodeListRef CodeListOID="CL.LBTESTCD"/>

  <def:Origin Type="Derived"></def:Origin>
  
</ItemDef>

<ItemDef OID="IT.LB.LBTEST"
  Name="LBTEST"
  SASFieldName="LBTEST"
  DataType="text"
  Length="40"
  def:DisplayFormat="40"
  >
  <Description>
      <TranslatedText xml:lang="en">Lab Test or Examination Name</TranslatedText>
  </Description><CodeListRef CodeListOID="CL.LBTEST"/>

  <def:Origin Type="Derived"></def:Origin>
  
</ItemDef>

<ItemDef OID="IT.LB.LBCAT"
  Name="LBCAT"
  SASFieldName="LBCAT"
  DataType="text"
  Length="40"
  def:DisplayFormat="40"
  >
  <Description>
      <TranslatedText xml:lang="en">Category for Lab Test</TranslatedText>
  </Description><CodeListRef CodeListOID="CL.LBCAT"/>

  <def:Origin Type="Derived"></def:Origin>
  
</ItemDef>

<ItemDef OID="IT.LB.LBORRES"
  Name="LBORRES"
  SASFieldName="LBORRES"
  DataType="text"
  Length="200"
  def:DisplayFormat="200"
  >
  <Description>
      <TranslatedText xml:lang="en">Result or Finding in Original Units</TranslatedText>
  </Description>
  <def:Origin Type="eDT"></def:Origin>
  <def:ValueListRef ValueListOID="VL.LB.LBORRES"/>

</ItemDef>
<ItemDef OID="IT.LB.LBORRES.ALB"
  Name="LBORRES"
  SASFieldName="LBORRES"
  DataType="float"
  Length="8"
  def:DisplayFormat="4.2"
  >
  <Description>
      <TranslatedText xml:lang="en">Albumin; Microalbumin</TranslatedText>
  </Description>
  <def:Origin Type="eDT"></def:Origin>
</ItemDef>
<ItemDef OID="IT.LB.LBORRES.ALP"
  Name="LBORRES"
  SASFieldName="LBORRES"
  DataType="float"
  Length="8"
  def:DisplayFormat="3."
  >
  <Description>
      <TranslatedText xml:lang="en">Alkaline Phosphatase</TranslatedText>
  </Description>
  <def:Origin Type="eDT"></def:Origin>
</ItemDef>
<ItemDef OID="IT.LB.LBORRES.ALT"
  Name="LBORRES"
  SASFieldName="LBORRES"
  DataType="float"
  Length="8"
  def:DisplayFormat="3."
  >
  <Description>
      <TranslatedText xml:lang="en">Alanine Aminotransferase; SGPT</TranslatedText>
  </Description>
  <def:Origin Type="eDT"></def:Origin>
</ItemDef>
<ItemDef OID="IT.LB.LBORRES.AST"
  Name="LBORRES"
  SASFieldName="LBORRES"
  DataType="float"
  Length="8"
  def:DisplayFormat="3."
  >
  <Description>
      <TranslatedText xml:lang="en">Aspartate Aminotransferase; SGOT</TranslatedText>
  </Description>
  <def:Origin Type="eDT"></def:Origin>
</ItemDef>
<ItemDef OID="IT.LB.LBORRES.BILDIR"
  Name="LBORRES"
  SASFieldName="LBORRES"
  DataType="float"
  Length="8"
  def:DisplayFormat="4.2"
  >
  <Description>
      <TranslatedText xml:lang="en">Direct Bilirubin</TranslatedText>
  </Description>
  <def:Origin Type="eDT"></def:Origin>
</ItemDef>
<ItemDef OID="IT.LB.LBORRES.BILI"
  Name="LBORRES"
  SASFieldName="LBORRES"
  DataType="float"
  Length="8"
  def:DisplayFormat="4.2"
  >
  <Description>
      <TranslatedText xml:lang="en">Bilirubin; Total Bilirubin</TranslatedText>
  </Description>
  <def:Origin Type="eDT"></def:Origin>
</ItemDef>
<ItemDef OID="IT.LB.LBORRES.GGT"
  Name="LBORRES"
  SASFieldName="LBORRES"
  DataType="float"
  Length="8"
  def:DisplayFormat="3."
  >
  <Description>
      <TranslatedText xml:lang="en">Gamma Glutamyl Transferase</TranslatedText>
  </Description>
  <def:Origin Type="eDT"></def:Origin>
</ItemDef>
<ItemDef OID="IT.LB.LBORRES.HCT"
  Name="LBORRES"
  SASFieldName="LBORRES"
  DataType="float"
  Length="8"
  def:DisplayFormat="3."
  >
  <Description>
      <TranslatedText xml:lang="en">Hematocrit</TranslatedText>
  </Description>
  <def:Origin Type="eDT"></def:Origin>
</ItemDef>
<ItemDef OID="IT.LB.LBORRES.HGB"
  Name="LBORRES"
  SASFieldName="LBORRES"
  DataType="float"
  Length="8"
  def:DisplayFormat="5.2"
  >
  <Description>
      <TranslatedText xml:lang="en">Hemoglobin</TranslatedText>
  </Description>
  <def:Origin Type="eDT"></def:Origin>
</ItemDef>
<ItemDef OID="IT.LB.LBORRES.PROT"
  Name="LBORRES"
  SASFieldName="LBORRES"
  DataType="float"
  Length="8"
  def:DisplayFormat="4.2"
  >
  <Description>
      <TranslatedText xml:lang="en">Protein</TranslatedText>
  </Description>
  <def:Origin Type="eDT"></def:Origin>
</ItemDef>
<ItemDef OID="IT.LB.LBORRES.GLUC.CHEMISTRY"
  Name="LBORRES"
  SASFieldName="LBORRES"
  DataType="float"
  Length="8"
  def:DisplayFormat="4.2"
  >
  <Description>
      <TranslatedText xml:lang="en">Glucose</TranslatedText>
  </Description>
  <def:Origin Type="eDT"></def:Origin>
</ItemDef>
<ItemDef OID="IT.LB.LBORRES.GLUC.URINALYSIS"
  Name="LBORRES"
  SASFieldName="LBORRES"
  DataType="text"
  Length="8"
  def:DisplayFormat="8"
  >
  <Description>
      <TranslatedText xml:lang="en">Glucose</TranslatedText>
  </Description><CodeListRef CodeListOID="CL.URINGLUC"/>

  <def:Origin Type="eDT"></def:Origin>
</ItemDef>

<ItemDef OID="IT.LB.LBORRESU"
  Name="LBORRESU"
  SASFieldName="LBORRESU"
  DataType="text"
  Length="40"
  def:DisplayFormat="40"
  >
  <Description>
      <TranslatedText xml:lang="en">Original Units</TranslatedText>
  </Description><CodeListRef CodeListOID="CL.UNIT"/>

  <def:Origin Type="eDT"></def:Origin>
  
</ItemDef>

<ItemDef OID="IT.LB.LBORNRLO"
  Name="LBORNRLO"
  SASFieldName="LBORNRLO"
  DataType="text"
  Length="40"
  def:DisplayFormat="40"
  >
  <Description>
      <TranslatedText xml:lang="en">Reference Range Lower Limit in Orig Unit</TranslatedText>
  </Description>
  <def:Origin Type="eDT"></def:Origin>
  
</ItemDef>

<ItemDef OID="IT.LB.LBORNRHI"
  Name="LBORNRHI"
  SASFieldName="LBORNRHI"
  DataType="text"
  Length="40"
  def:DisplayFormat="40"
  >
  <Description>
      <TranslatedText xml:lang="en">Reference Range Upper Limit in Orig Unit</TranslatedText>
  </Description>
  <def:Origin Type="eDT"></def:Origin>
  
</ItemDef>

<ItemDef OID="IT.LB.LBSTRESC"
  Name="LBSTRESC"
  SASFieldName="LBSTRESC"
  DataType="text"
  Length="200"
  def:DisplayFormat="200"
  >
  <Description>
      <TranslatedText xml:lang="en">Character Result/Finding in Std Format</TranslatedText>
  </Description>
  <def:Origin Type="Derived"></def:Origin>
  
</ItemDef>

<ItemDef OID="IT.LB.LBSTRESN"
  Name="LBSTRESN"
  SASFieldName="LBSTRESN"
  DataType="float"
  Length="8"
  def:DisplayFormat="8"
  >
  <Description>
      <TranslatedText xml:lang="en">Numeric Result/Finding in Standard Units</TranslatedText>
  </Description>
  <def:Origin Type="Derived"></def:Origin>
  
</ItemDef>

<ItemDef OID="IT.LB.LBSTRESU"
  Name="LBSTRESU"
  SASFieldName="LBSTRESU"
  DataType="text"
  Length="40"
  def:DisplayFormat="40"
  >
  <Description>
      <TranslatedText xml:lang="en">Standard Units</TranslatedText>
  </Description><CodeListRef CodeListOID="CL.UNIT"/>

  <def:Origin Type="Derived"></def:Origin>
  
</ItemDef>

<ItemDef OID="IT.LB.LBSTNRLO"
  Name="LBSTNRLO"
  SASFieldName="LBSTNRLO"
  DataType="float"
  Length="8"
  def:DisplayFormat="8"
  >
  <Description>
      <TranslatedText xml:lang="en">Reference Range Lower Limit-Std Units</TranslatedText>
  </Description>
  <def:Origin Type="Derived"></def:Origin>
  
</ItemDef>

<ItemDef OID="IT.LB.LBSTNRHI"
  Name="LBSTNRHI"
  SASFieldName="LBSTNRHI"
  DataType="float"
  Length="8"
  def:DisplayFormat="8"
  >
  <Description>
      <TranslatedText xml:lang="en">Reference Range Upper Limit-Std Units</TranslatedText>
  </Description>
  <def:Origin Type="Derived"></def:Origin>
  
</ItemDef>

<ItemDef OID="IT.LB.LBNRIND"
  Name="LBNRIND"
  SASFieldName="LBNRIND"
  DataType="text"
  Length="20"
  def:DisplayFormat="20"
  >
  <Description>
      <TranslatedText xml:lang="en">Reference Range Indicator</TranslatedText>
  </Description><CodeListRef CodeListOID="CL.LBNRIND"/>

  <def:Origin Type="Derived"></def:Origin>
  
</ItemDef>

<ItemDef OID="IT.LB.LBBLFL"
  Name="LBBLFL"
  SASFieldName="LBBLFL"
  DataType="text"
  Length="2"
  def:DisplayFormat="2"
  >
  <Description>
      <TranslatedText xml:lang="en">Baseline Flag</TranslatedText>
  </Description><CodeListRef CodeListOID="CL.NY"/>

  <def:Origin Type="Derived"></def:Origin>
  
</ItemDef>

<ItemDef OID="IT.LB.VISITNUM"
  Name="VISITNUM"
  SASFieldName="VISITNUM"
  DataType="integer"
  Length="8"
  def:DisplayFormat="8"
  >
  <Description>
      <TranslatedText xml:lang="en">Visit Number</TranslatedText>
  </Description>
  <def:Origin Type="eDT"></def:Origin>
  
</ItemDef>

<ItemDef OID="IT.LB.VISIT"
  Name="VISIT"
  SASFieldName="VISIT"
  DataType="text"
  Length="40"
  def:DisplayFormat="40"
  >
  <Description>
      <TranslatedText xml:lang="en">Visit Name</TranslatedText>
  </Description><CodeListRef CodeListOID="CL.VISIT"/>

  <def:Origin Type="eDT"></def:Origin>
  
</ItemDef>

<ItemDef OID="IT.LB.EPOCH"
  Name="EPOCH"
  SASFieldName="EPOCH"
  DataType="text"
  Length="40"
  def:DisplayFormat="40"
  >
  <Description>
      <TranslatedText xml:lang="en">Epoch</TranslatedText>
  </Description><CodeListRef CodeListOID="CL.EPOCH"/>

  <def:Origin Type="Derived"></def:Origin>
  
</ItemDef>

<ItemDef OID="IT.LB.LBDTC"
  Name="LBDTC"
  SASFieldName="LBDTC"
  DataType="date"
  Length="16"
  def:DisplayFormat="16"
  >
  <Description>
      <TranslatedText xml:lang="en">Date/Time of Specimen Collection</TranslatedText>
  </Description>
  <def:Origin Type="eDT"></def:Origin>
  
</ItemDef>

<ItemDef OID="IT.LB.LBDY"
  Name="LBDY"
  SASFieldName="LBDY"
  DataType="integer"
  Length="8"
  def:DisplayFormat="8"
  >
  <Description>
      <TranslatedText xml:lang="en">Study Day of Specimen Collection</TranslatedText>
  </Description>
  <def:Origin Type="Derived"></def:Origin>
  
</ItemDef>

<ItemDef OID="IT.TA.STUDYID"
  Name="STUDYID"
  SASFieldName="STUDYID"
  DataType="text"
  Length="15"
  def:DisplayFormat="15"
  >
  <Description>
      <TranslatedText xml:lang="en">Study Identifier</TranslatedText>
  </Description>
  <def:Origin Type="Assigned"></def:Origin>
  
</ItemDef>

<ItemDef OID="IT.TA.DOMAIN"
  Name="DOMAIN"
  SASFieldName="DOMAIN"
  DataType="text"
  Length="2"
  def:DisplayFormat="2"
  >
  <Description>
      <TranslatedText xml:lang="en">Domain Abbreviation</TranslatedText>
  </Description>
  <def:Origin Type="Derived"></def:Origin>
  
</ItemDef>

<ItemDef OID="IT.TA.ARMCD"
  Name="ARMCD"
  SASFieldName="ARMCD"
  DataType="text"
  Length="8"
  def:DisplayFormat="8"
  >
  <Description>
      <TranslatedText xml:lang="en">Planned Arm Code</TranslatedText>
  </Description><CodeListRef CodeListOID="CL.ARMCD"/>

  <def:Origin Type="Derived"></def:Origin>
  
</ItemDef>

<ItemDef OID="IT.TA.ARM"
  Name="ARM"
  SASFieldName="ARM"
  DataType="text"
  Length="40"
  def:DisplayFormat="40"
  >
  <Description>
      <TranslatedText xml:lang="en">Description of Planned Arm</TranslatedText>
  </Description><CodeListRef CodeListOID="CL.ARM"/>

  <def:Origin Type="Derived"></def:Origin>
  
</ItemDef>

<ItemDef OID="IT.TA.TAETORD"
  Name="TAETORD"
  SASFieldName="TAETORD"
  DataType="integer"
  Length="8"
  def:DisplayFormat="8"
  >
  <Description>
      <TranslatedText xml:lang="en">Planned Order of Element within Arm</TranslatedText>
  </Description>
  <def:Origin Type="Derived"></def:Origin>
  
</ItemDef>

<ItemDef OID="IT.TA.ETCD"
  Name="ETCD"
  SASFieldName="ETCD"
  DataType="text"
  Length="8"
  def:DisplayFormat="8"
  >
  <Description>
      <TranslatedText xml:lang="en">Element Code</TranslatedText>
  </Description>
  <def:Origin Type="Derived"></def:Origin>
  
</ItemDef>

<ItemDef OID="IT.TA.ELEMENT"
  Name="ELEMENT"
  SASFieldName="ELEMENT"
  DataType="text"
  Length="40"
  def:DisplayFormat="40"
  >
  <Description>
      <TranslatedText xml:lang="en">Description of Element</TranslatedText>
  </Description>
  <def:Origin Type="Derived"></def:Origin>
  
</ItemDef>

<ItemDef OID="IT.TA.TABRANCH"
  Name="TABRANCH"
  SASFieldName="TABRANCH"
  DataType="text"
  Length="200"
  def:DisplayFormat="200"
  >
  <Description>
      <TranslatedText xml:lang="en">Branch</TranslatedText>
  </Description>
  <def:Origin Type="Derived"></def:Origin>
  
</ItemDef>

<ItemDef OID="IT.TA.TATRANS"
  Name="TATRANS"
  SASFieldName="TATRANS"
  DataType="text"
  Length="200"
  def:DisplayFormat="200"
  >
  <Description>
      <TranslatedText xml:lang="en">Transition Rule</TranslatedText>
  </Description>
  <def:Origin Type="Derived"></def:Origin>
  
</ItemDef>

<ItemDef OID="IT.TA.EPOCH"
  Name="EPOCH"
  SASFieldName="EPOCH"
  DataType="text"
  Length="40"
  def:DisplayFormat="40"
  >
  <Description>
      <TranslatedText xml:lang="en">Epoch</TranslatedText>
  </Description><CodeListRef CodeListOID="CL.EPOCH"/>

  <def:Origin Type="Derived"></def:Origin>
  
</ItemDef>

<ItemDef OID="IT.TE.STUDYID"
  Name="STUDYID"
  SASFieldName="STUDYID"
  DataType="text"
  Length="15"
  def:DisplayFormat="15"
  >
  <Description>
      <TranslatedText xml:lang="en">Study Identifier</TranslatedText>
  </Description>
  <def:Origin Type="Assigned"></def:Origin>
  
</ItemDef>

<ItemDef OID="IT.TE.DOMAIN"
  Name="DOMAIN"
  SASFieldName="DOMAIN"
  DataType="text"
  Length="2"
  def:DisplayFormat="2"
  >
  <Description>
      <TranslatedText xml:lang="en">Domain Abbreviation</TranslatedText>
  </Description>
  <def:Origin Type="Derived"></def:Origin>
  
</ItemDef>

<ItemDef OID="IT.TE.ETCD"
  Name="ETCD"
  SASFieldName="ETCD"
  DataType="text"
  Length="8"
  def:DisplayFormat="8"
  >
  <Description>
      <TranslatedText xml:lang="en">Element Code</TranslatedText>
  </Description>
  <def:Origin Type="Derived"></def:Origin>
  
</ItemDef>

<ItemDef OID="IT.TE.ELEMENT"
  Name="ELEMENT"
  SASFieldName="ELEMENT"
  DataType="text"
  Length="40"
  def:DisplayFormat="40"
  >
  <Description>
      <TranslatedText xml:lang="en">Description of Element</TranslatedText>
  </Description>
  <def:Origin Type="Derived"></def:Origin>
  
</ItemDef>

<ItemDef OID="IT.TE.TESTRL"
  Name="TESTRL"
  SASFieldName="TESTRL"
  DataType="text"
  Length="200"
  def:DisplayFormat="200"
  >
  <Description>
      <TranslatedText xml:lang="en">Rule for Start of Element</TranslatedText>
  </Description>
  <def:Origin Type="Derived"></def:Origin>
  
</ItemDef>

<ItemDef OID="IT.TE.TEENRL"
  Name="TEENRL"
  SASFieldName="TEENRL"
  DataType="text"
  Length="200"
  def:DisplayFormat="200"
  >
  <Description>
      <TranslatedText xml:lang="en">Rule for End of Element</TranslatedText>
  </Description>
  <def:Origin Type="Derived"></def:Origin>
  
</ItemDef>

<ItemDef OID="IT.TE.TEDUR"
  Name="TEDUR"
  SASFieldName="TEDUR"
  DataType="text"
  Length="64"
  def:DisplayFormat="64"
  >
  <Description>
      <TranslatedText xml:lang="en">Planned Duration of Element</TranslatedText>
  </Description>
  <def:Origin Type="Derived"></def:Origin>
  
</ItemDef>

<ItemDef OID="IT.TI.STUDYID"
  Name="STUDYID"
  SASFieldName="STUDYID"
  DataType="text"
  Length="15"
  def:DisplayFormat="15"
  >
  <Description>
      <TranslatedText xml:lang="en">Study Identifier</TranslatedText>
  </Description>
  <def:Origin Type="Assigned"></def:Origin>
  
</ItemDef>

<ItemDef OID="IT.TI.DOMAIN"
  Name="DOMAIN"
  SASFieldName="DOMAIN"
  DataType="text"
  Length="2"
  def:DisplayFormat="2"
  >
  <Description>
      <TranslatedText xml:lang="en">Domain Abbreviation</TranslatedText>
  </Description>
  <def:Origin Type="Derived"></def:Origin>
  
</ItemDef>

<ItemDef OID="IT.TI.IETESTCD"
  Name="IETESTCD"
  SASFieldName="IETESTCD"
  DataType="text"
  Length="8"
  def:DisplayFormat="8"
  >
  <Description>
      <TranslatedText xml:lang="en">Inclusion/Exclusion Criterion Short Name</TranslatedText>
  </Description>
  <def:Origin Type="Derived"></def:Origin>
  
</ItemDef>

<ItemDef OID="IT.TI.IETEST"
  Name="IETEST"
  SASFieldName="IETEST"
  DataType="text"
  Length="200"
  def:DisplayFormat="200"
  >
  <Description>
      <TranslatedText xml:lang="en">Inclusion/Exclusion Criterion</TranslatedText>
  </Description>
  <def:Origin Type="Derived"></def:Origin>
  
</ItemDef>

<ItemDef OID="IT.TI.IECAT"
  Name="IECAT"
  SASFieldName="IECAT"
  DataType="text"
  Length="40"
  def:DisplayFormat="40"
  >
  <Description>
      <TranslatedText xml:lang="en">Inclusion/Exclusion Category</TranslatedText>
  </Description><CodeListRef CodeListOID="CL.IECAT"/>

  <def:Origin Type="Derived"></def:Origin>
  
</ItemDef>

<ItemDef OID="IT.TD.STUDYID"
  Name="STUDYID"
  SASFieldName="STUDYID"
  DataType="text"
  Length="15"
  def:DisplayFormat="15"
  >
  <Description>
      <TranslatedText xml:lang="en">Study Identifier</TranslatedText>
  </Description>
  <def:Origin Type="Assigned"></def:Origin>
  
</ItemDef>

<ItemDef OID="IT.TD.DOMAIN"
  Name="DOMAIN"
  SASFieldName="DOMAIN"
  DataType="text"
  Length="2"
  def:DisplayFormat="2"
  >
  <Description>
      <TranslatedText xml:lang="en">Domain Abbreviation</TranslatedText>
  </Description>
  <def:Origin Type="Derived"></def:Origin>
  
</ItemDef>

<ItemDef OID="IT.TD.TDORDER"
  Name="TDORDER"
  SASFieldName="TDORDER"
  DataType="integer"
  Length="8"
  def:DisplayFormat="8"
  >
  <Description>
      <TranslatedText xml:lang="en">Sequence of Planned Assessment Schedule</TranslatedText>
  </Description>
  <def:Origin Type="Derived"></def:Origin>
  
</ItemDef>

<ItemDef OID="IT.TD.TDANCVAR"
  Name="TDANCVAR"
  SASFieldName="TDANCVAR"
  DataType="text"
  Length="8"
  def:DisplayFormat="8"
  >
  <Description>
      <TranslatedText xml:lang="en">Anchor Variable Name</TranslatedText>
  </Description>
  <def:Origin Type="Derived"></def:Origin>
  
</ItemDef>

<ItemDef OID="IT.TD.TDSTOFF"
  Name="TDSTOFF"
  SASFieldName="TDSTOFF"
  DataType="date"
  Length="16"
  def:DisplayFormat="16"
  >
  <Description>
      <TranslatedText xml:lang="en">Offset from the Anchor</TranslatedText>
  </Description>
  <def:Origin Type="Derived"></def:Origin>
  
</ItemDef>

<ItemDef OID="IT.TD.TDTGTPAI"
  Name="TDTGTPAI"
  SASFieldName="TDTGTPAI"
  DataType="date"
  Length="16"
  def:DisplayFormat="16"
  >
  <Description>
      <TranslatedText xml:lang="en">Planned Assessment Interval</TranslatedText>
  </Description>
  <def:Origin Type="Derived"></def:Origin>
  
</ItemDef>

<ItemDef OID="IT.TD.TDMINPAI"
  Name="TDMINPAI"
  SASFieldName="TDMINPAI"
  DataType="date"
  Length="16"
  def:DisplayFormat="16"
  >
  <Description>
      <TranslatedText xml:lang="en">Planned Assessment Interval Minimum</TranslatedText>
  </Description>
  <def:Origin Type="Derived"></def:Origin>
  
</ItemDef>

<ItemDef OID="IT.TD.TDMAXPAI"
  Name="TDMAXPAI"
  SASFieldName="TDMAXPAI"
  DataType="date"
  Length="16"
  def:DisplayFormat="16"
  >
  <Description>
      <TranslatedText xml:lang="en">Planned Assessment Interval Maximum</TranslatedText>
  </Description>
  <def:Origin Type="Derived"></def:Origin>
  
</ItemDef>

<ItemDef OID="IT.TD.TDNUMRPT"
  Name="TDNUMRPT"
  SASFieldName="TDNUMRPT"
  DataType="integer"
  Length="8"
  def:DisplayFormat="8"
  >
  <Description>
      <TranslatedText xml:lang="en">Maximum Number of Actual Assessments</TranslatedText>
  </Description>
  <def:Origin Type="Derived"></def:Origin>
  
</ItemDef>

<ItemDef OID="IT.TS.STUDYID"
  Name="STUDYID"
  SASFieldName="STUDYID"
  DataType="text"
  Length="15"
  def:DisplayFormat="15"
  >
  <Description>
      <TranslatedText xml:lang="en">Study Identifier</TranslatedText>
  </Description>
  <def:Origin Type="Assigned"></def:Origin>
  
</ItemDef>

<ItemDef OID="IT.TS.DOMAIN"
  Name="DOMAIN"
  SASFieldName="DOMAIN"
  DataType="text"
  Length="2"
  def:DisplayFormat="2"
  >
  <Description>
      <TranslatedText xml:lang="en">Domain Abbreviation</TranslatedText>
  </Description>
  <def:Origin Type="Derived"></def:Origin>
  
</ItemDef>

<ItemDef OID="IT.TS.TSSEQ"
  Name="TSSEQ"
  SASFieldName="TSSEQ"
  DataType="integer"
  Length="8"
  def:DisplayFormat="8"
  >
  <Description>
      <TranslatedText xml:lang="en">Sequence Number</TranslatedText>
  </Description>
  <def:Origin Type="Derived"></def:Origin>
  
</ItemDef>

<ItemDef OID="IT.TS.TSPARMCD"
  Name="TSPARMCD"
  SASFieldName="TSPARMCD"
  DataType="text"
  Length="8"
  def:DisplayFormat="8"
  >
  <Description>
      <TranslatedText xml:lang="en">Trial Summary Parameter Short Name</TranslatedText>
  </Description><CodeListRef CodeListOID="CL.TSPARMCD"/>

  <def:Origin Type="Derived"></def:Origin>
  
</ItemDef>

<ItemDef OID="IT.TS.TSPARM"
  Name="TSPARM"
  SASFieldName="TSPARM"
  DataType="text"
  Length="40"
  def:DisplayFormat="40"
  >
  <Description>
      <TranslatedText xml:lang="en">Trial Summary Parameter</TranslatedText>
  </Description><CodeListRef CodeListOID="CL.TSPARM"/>

  <def:Origin Type="Derived"></def:Origin>
  
</ItemDef>

<ItemDef OID="IT.TS.TSVAL"
  Name="TSVAL"
  SASFieldName="TSVAL"
  DataType="text"
  Length="200"
  def:DisplayFormat="200"
  >
  <Description>
      <TranslatedText xml:lang="en">Parameter Value</TranslatedText>
  </Description>
  <def:Origin Type="Derived"></def:Origin>
  
</ItemDef>

<ItemDef OID="IT.TS.TSVALCD"
  Name="TSVALCD"
  SASFieldName="TSVALCD"
  DataType="text"
  Length="40"
  def:DisplayFormat="40"
  >
  <Description>
      <TranslatedText xml:lang="en">Parameter Value Code</TranslatedText>
  </Description>
  <def:Origin Type="Derived"></def:Origin>
  
</ItemDef>

<ItemDef OID="IT.TS.TSVCDREF"
  Name="TSVCDREF"
  SASFieldName="TSVCDREF"
  DataType="text"
  Length="40"
  def:DisplayFormat="40"
  >
  <Description>
      <TranslatedText xml:lang="en">Name of the Reference Terminology</TranslatedText>
  </Description>
  <def:Origin Type="Derived"></def:Origin>
  
</ItemDef>

<ItemDef OID="IT.TS.TSVCDVER"
  Name="TSVCDVER"
  SASFieldName="TSVCDVER"
  DataType="text"
  Length="40"
  def:DisplayFormat="40"
  >
  <Description>
      <TranslatedText xml:lang="en">Version of the Reference Terminology</TranslatedText>
  </Description>
  <def:Origin Type="Derived"></def:Origin>
  
</ItemDef>

<ItemDef OID="IT.TV.STUDYID"
  Name="STUDYID"
  SASFieldName="STUDYID"
  DataType="text"
  Length="15"
  def:DisplayFormat="15"
  >
  <Description>
      <TranslatedText xml:lang="en">Study Identifier</TranslatedText>
  </Description>
  <def:Origin Type="Assigned"></def:Origin>
  
</ItemDef>

<ItemDef OID="IT.TV.DOMAIN"
  Name="DOMAIN"
  SASFieldName="DOMAIN"
  DataType="text"
  Length="2"
  def:DisplayFormat="2"
  >
  <Description>
      <TranslatedText xml:lang="en">Domain Abbreviation</TranslatedText>
  </Description>
  <def:Origin Type="Derived"></def:Origin>
  
</ItemDef>

<ItemDef OID="IT.TV.VISITNUM"
  Name="VISITNUM"
  SASFieldName="VISITNUM"
  DataType="integer"
  Length="8"
  def:DisplayFormat="8"
  >
  <Description>
      <TranslatedText xml:lang="en">Visit Number</TranslatedText>
  </Description>
  <def:Origin Type="Derived"></def:Origin>
  
</ItemDef>

<ItemDef OID="IT.TV.VISIT"
  Name="VISIT"
  SASFieldName="VISIT"
  DataType="text"
  Length="40"
  def:DisplayFormat="40"
  >
  <Description>
      <TranslatedText xml:lang="en">Visit Name</TranslatedText>
  </Description>
  <def:Origin Type="Derived"></def:Origin>
  
</ItemDef>

<ItemDef OID="IT.TV.ARMCD"
  Name="ARMCD"
  SASFieldName="ARMCD"
  DataType="text"
  Length="8"
  def:DisplayFormat="8"
  >
  <Description>
      <TranslatedText xml:lang="en">Planned Arm Code</TranslatedText>
  </Description><CodeListRef CodeListOID="CL.ARMCD"/>

  <def:Origin Type="Derived"></def:Origin>
  
</ItemDef>

<ItemDef OID="IT.TV.ARM"
  Name="ARM"
  SASFieldName="ARM"
  DataType="text"
  Length="40"
  def:DisplayFormat="40"
  >
  <Description>
      <TranslatedText xml:lang="en">Description of Planned Arm</TranslatedText>
  </Description><CodeListRef CodeListOID="CL.ARM"/>

  <def:Origin Type="Derived"></def:Origin>
  
</ItemDef>

<ItemDef OID="IT.TV.TVSTRL"
  Name="TVSTRL"
  SASFieldName="TVSTRL"
  DataType="text"
  Length="200"
  def:DisplayFormat="200"
  >
  <Description>
      <TranslatedText xml:lang="en">Visit Start Rule</TranslatedText>
  </Description>
  <def:Origin Type="Derived"></def:Origin>
  
</ItemDef>

<ItemDef OID="IT.TV.TVENRL"
  Name="TVENRL"
  SASFieldName="TVENRL"
  DataType="text"
  Length="200"
  def:DisplayFormat="200"
  >
  <Description>
      <TranslatedText xml:lang="en">Visit End Rule</TranslatedText>
  </Description>
  <def:Origin Type="Derived"></def:Origin>
  
</ItemDef>

<ItemDef OID="IT.XP.STUDYID"
  Name="STUDYID"
  SASFieldName="STUDYID"
  DataType="text"
  Length="15"
  def:DisplayFormat="15"
  >
  <Description>
      <TranslatedText xml:lang="en">Study Identifier</TranslatedText>
  </Description>
  <def:Origin Type="Assigned"></def:Origin>
  
</ItemDef>

<ItemDef OID="IT.XP.DOMAIN"
  Name="DOMAIN"
  SASFieldName="DOMAIN"
  DataType="text"
  Length="2"
  def:DisplayFormat="2"
  >
  <Description>
      <TranslatedText xml:lang="en">Domain Abbreviation</TranslatedText>
  </Description>
  <def:Origin Type="Derived"></def:Origin>
  
</ItemDef>

<ItemDef OID="IT.XP.USUBJID"
  Name="USUBJID"
  SASFieldName="USUBJID"
  DataType="text"
  Length="25"
  def:DisplayFormat="25"
  >
  <Description>
      <TranslatedText xml:lang="en">Unique Subject Identifier</TranslatedText>
  </Description>
  <def:Origin Type="Assigned"></def:Origin>
  
</ItemDef>

<ItemDef OID="IT.XP.XPSEQ"
  Name="XPSEQ"
  SASFieldName="XPSEQ"
  DataType="integer"
  Length="8"
  def:DisplayFormat="8"
  >
  <Description>
      <TranslatedText xml:lang="en">Sequence Number</TranslatedText>
  </Description>
  <def:Origin Type="Derived"></def:Origin>
  
</ItemDef>

<ItemDef OID="IT.XP.XPTESTCD"
  Name="XPTESTCD"
  SASFieldName="XPTESTCD"
  DataType="text"
  Length="8"
  def:DisplayFormat="8"
  >
  <Description>
      <TranslatedText xml:lang="en">Pain Test Short Name</TranslatedText>
  </Description><CodeListRef CodeListOID="CL.XPTESTCD"/>

  <def:Origin Type="Derived"></def:Origin>
  
</ItemDef>

<ItemDef OID="IT.XP.XPTEST"
  Name="XPTEST"
  SASFieldName="XPTEST"
  DataType="text"
  Length="40"
  def:DisplayFormat="40"
  >
  <Description>
      <TranslatedText xml:lang="en">Pain Test Name</TranslatedText>
  </Description><CodeListRef CodeListOID="CL.XPTEST"/>

  <def:Origin Type="Derived"></def:Origin>
  
</ItemDef>

<ItemDef OID="IT.XP.XPORRES"
  Name="XPORRES"
  SASFieldName="XPORRES"
  DataType="text"
  Length="200"
  def:DisplayFormat="200"
  >
  <Description>
      <TranslatedText xml:lang="en">Result or Finding in Original Units</TranslatedText>
  </Description>
  <def:Origin Type="CRF">
   <def:DocumentRef leafID="LF.blankcrf">
   <def:PDFPageRef PageRefs="5" Type="PhysicalRef"/>
   </def:DocumentRef>
</def:Origin>

  
</ItemDef>

<ItemDef OID="IT.XP.XPSTRESC"
  Name="XPSTRESC"
  SASFieldName="XPSTRESC"
  DataType="text"
  Length="200"
  def:DisplayFormat="200"
  >
  <Description>
      <TranslatedText xml:lang="en">Character Result/Finding in Std Format</TranslatedText>
  </Description>
  <def:Origin Type="CRF">
   <def:DocumentRef leafID="LF.blankcrf">
   <def:PDFPageRef PageRefs="5" Type="PhysicalRef"/>
   </def:DocumentRef>
</def:Origin>

  
</ItemDef>

<ItemDef OID="IT.XP.XPSTRESN"
  Name="XPSTRESN"
  SASFieldName="XPSTRESN"
  DataType="integer"
  Length="8"
  def:DisplayFormat="8"
  >
  <Description>
      <TranslatedText xml:lang="en">Numeric Result/Finding in Std Format</TranslatedText>
  </Description>
  <def:Origin Type="CRF">
   <def:DocumentRef leafID="LF.blankcrf">
   <def:PDFPageRef PageRefs="5" Type="PhysicalRef"/>
   </def:DocumentRef>
</def:Origin>

  
</ItemDef>

<ItemDef OID="IT.XP.EPOCH"
  Name="EPOCH"
  SASFieldName="EPOCH"
  DataType="text"
  Length="40"
  def:DisplayFormat="40"
  >
  <Description>
      <TranslatedText xml:lang="en">Epoch</TranslatedText>
  </Description><CodeListRef CodeListOID="CL.EPOCH"/>

  <def:Origin Type="Derived"></def:Origin>
  
</ItemDef>

<ItemDef OID="IT.XP.VISITNUM"
  Name="VISITNUM"
  SASFieldName="VISITNUM"
  DataType="integer"
  Length="8"
  def:DisplayFormat="8"
  >
  <Description>
      <TranslatedText xml:lang="en">Visit Number</TranslatedText>
  </Description>
  <def:Origin Type="Assigned"></def:Origin>
  
</ItemDef>

<ItemDef OID="IT.XP.VISIT"
  Name="VISIT"
  SASFieldName="VISIT"
  DataType="text"
  Length="40"
  def:DisplayFormat="40"
  >
  <Description>
      <TranslatedText xml:lang="en">Visit Name</TranslatedText>
  </Description><CodeListRef CodeListOID="CL.VISIT"/>

  <def:Origin Type="CRF">
   <def:DocumentRef leafID="LF.blankcrf">
   <def:PDFPageRef PageRefs="5" Type="PhysicalRef"/>
   </def:DocumentRef>
</def:Origin>

  
</ItemDef>

<ItemDef OID="IT.XP.XPBLFL"
  Name="XPBLFL"
  SASFieldName="XPBLFL"
  DataType="text"
  Length="2"
  def:DisplayFormat="2"
  >
  <Description>
      <TranslatedText xml:lang="en">Baseline Flag</TranslatedText>
  </Description><CodeListRef CodeListOID="CL.NY"/>

  <def:Origin Type="Derived"></def:Origin>
  
</ItemDef>

<ItemDef OID="IT.XP.XPDTC"
  Name="XPDTC"
  SASFieldName="XPDTC"
  DataType="date"
  Length="16"
  def:DisplayFormat="16"
  >
  <Description>
      <TranslatedText xml:lang="en">Date/Time of  Collection</TranslatedText>
  </Description>
  <def:Origin Type="CRF">
   <def:DocumentRef leafID="LF.blankcrf">
   <def:PDFPageRef PageRefs="5" Type="PhysicalRef"/>
   </def:DocumentRef>
</def:Origin>

  
</ItemDef>

<ItemDef OID="IT.XP.XPDY"
  Name="XPDY"
  SASFieldName="XPDY"
  DataType="integer"
  Length="8"
  def:DisplayFormat="8"
  >
  <Description>
      <TranslatedText xml:lang="en">Study Day of  Collection</TranslatedText>
  </Description>
  <def:Origin Type="Derived"></def:Origin>
  
</ItemDef>

  <!-- ************************************************************ -->
  <!-- Codelists are presented below                                -->
  <!-- ************************************************************ -->
<CodeList OID="CL.ACN"
Name="ACN"
DataType="text">
<CodeListItem CodedValue="DOSE INCREASED" Rank="1">
  <Decode>
    <TranslatedText>DOSE INCREASED</TranslatedText>
  </Decode>
</CodeListItem>
<CodeListItem CodedValue="DOSE NOT CHANGED" Rank="2">
  <Decode>
    <TranslatedText>DOSE NOT CHANGED</TranslatedText>
  </Decode>
</CodeListItem>
<CodeListItem CodedValue="DOSE REDUCED" Rank="3">
  <Decode>
    <TranslatedText>DOSE REDUCED</TranslatedText>
  </Decode>
</CodeListItem>
<CodeListItem CodedValue="DRUG INTERRUPTED" Rank="4">
  <Decode>
    <TranslatedText>DRUG INTERRUPTED</TranslatedText>
  </Decode>
</CodeListItem>
<CodeListItem CodedValue="DRUG WITHDRAWN" Rank="5">
  <Decode>
    <TranslatedText>DRUG WITHDRAWN</TranslatedText>
  </Decode>
</CodeListItem>
<CodeListItem CodedValue="NOT APPLICABLE" Rank="6">
  <Decode>
    <TranslatedText>NA</TranslatedText>
  </Decode>
</CodeListItem>
<CodeListItem CodedValue="UNKNOWN" Rank="7">
  <Decode>
    <TranslatedText>U; Unknown</TranslatedText>
  </Decode>
</CodeListItem>
</CodeList>
<CodeList OID="CL.AEBODSYS"
Name="AEBODSYS"
DataType="text">
<ExternalCodeList Dictionary="MedDRA" Version="18.0"/>
</CodeList>
<CodeList OID="CL.AEDECOD"
Name="AEDECOD"
DataType="text">
<ExternalCodeList Dictionary="MedDRA" Version="18.0"/>
</CodeList>
<CodeList OID="CL.AEREL"
Name="AEREL"
DataType="text">
<CodeListItem CodedValue="NOT RELATED" Rank="1">
  <Decode>
    <TranslatedText>NOT RELATED</TranslatedText>
  </Decode>
</CodeListItem>
<CodeListItem CodedValue="POSSIBLY RELATED" Rank="2">
  <Decode>
    <TranslatedText>POSSIBLY RELATED</TranslatedText>
  </Decode>
</CodeListItem>
<CodeListItem CodedValue="PROBABLY RELATED" Rank="3">
  <Decode>
    <TranslatedText>PROBABLY RELATED</TranslatedText>
  </Decode>
</CodeListItem>
</CodeList>
<CodeList OID="CL.AESEV"
Name="AESEV"
DataType="text">
<CodeListItem CodedValue="MILD" Rank="1">
  <Decode>
    <TranslatedText>Grade 1; 1</TranslatedText>
  </Decode>
</CodeListItem>
<CodeListItem CodedValue="MODERATE" Rank="2">
  <Decode>
    <TranslatedText>Grade 2; 2</TranslatedText>
  </Decode>
</CodeListItem>
<CodeListItem CodedValue="SEVERE" Rank="3">
  <Decode>
    <TranslatedText>Grade 3; 3</TranslatedText>
  </Decode>
</CodeListItem>
</CodeList>
<CodeList OID="CL.AGEU"
Name="AGEU"
DataType="text">
<CodeListItem CodedValue="YEARS" Rank="1">
  <Decode>
    <TranslatedText>YEARS</TranslatedText>
  </Decode>
</CodeListItem>
</CodeList>
<CodeList OID="CL.ARM"
Name="ARM"
DataType="text">
<CodeListItem CodedValue="Analgezia HCL 30 mg" Rank="1">
  <Decode>
    <TranslatedText>Analgezia HCL 30 mg</TranslatedText>
  </Decode>
</CodeListItem>
<CodeListItem CodedValue="Placebo" Rank="2">
  <Decode>
    <TranslatedText>Placebo</TranslatedText>
  </Decode>
</CodeListItem>
</CodeList>
<CodeList OID="CL.ARMCD"
Name="ARMCD"
DataType="text">
<CodeListItem CodedValue="ALG123" Rank="1">
  <Decode>
    <TranslatedText>Analgezia HCL 30 mg</TranslatedText>
  </Decode>
</CodeListItem>
<CodeListItem CodedValue="PLACEBO" Rank="2">
  <Decode>
    <TranslatedText>Placebo</TranslatedText>
  </Decode>
</CodeListItem>
</CodeList>
<CodeList OID="CL.COUNTRY"
Name="COUNTRY"
DataType="text">
<CodeListItem CodedValue="USA" Rank="1">
  <Decode>
    <TranslatedText>UNITED STATES</TranslatedText>
  </Decode>
</CodeListItem>
</CodeList>
<CodeList OID="CL.EPOCH"
Name="EPOCH"
DataType="text">
<CodeListItem CodedValue="SCREENING" Rank="1">
  <Decode>
    <TranslatedText>SCREENING</TranslatedText>
  </Decode>
</CodeListItem>
<CodeListItem CodedValue="TREATMENT" Rank="2">
  <Decode>
    <TranslatedText>TREATMENT</TranslatedText>
  </Decode>
</CodeListItem>
</CodeList>
<CodeList OID="CL.FRM"
Name="FRM"
DataType="text">
<CodeListItem CodedValue="TABLET, COATED" Rank="1">
  <Decode>
    <TranslatedText>TABLET, COATED</TranslatedText>
  </Decode>
</CodeListItem>
</CodeList>
<CodeList OID="CL.IECAT"
Name="IECAT"
DataType="text">
<CodeListItem CodedValue="INCLUSION" Rank="1">
  <Decode>
    <TranslatedText>INCLUSION</TranslatedText>
  </Decode>
</CodeListItem>
<CodeListItem CodedValue="EXCLUSION" Rank="2">
  <Decode>
    <TranslatedText>EXCLUSION</TranslatedText>
  </Decode>
</CodeListItem>
</CodeList>
<CodeList OID="CL.LBCAT"
Name="LBCAT"
DataType="text">
<CodeListItem CodedValue="CHEMISTRY" Rank="1">
  <Decode>
    <TranslatedText>CHEMISTRY</TranslatedText>
  </Decode>
</CodeListItem>
<CodeListItem CodedValue="HEMATOLOGY" Rank="2">
  <Decode>
    <TranslatedText>HEMATOLOGY</TranslatedText>
  </Decode>
</CodeListItem>
<CodeListItem CodedValue="URINALYSIS" Rank="3">
  <Decode>
    <TranslatedText>URINALYSIS</TranslatedText>
  </Decode>
</CodeListItem>
</CodeList>
<CodeList OID="CL.LBNRIND"
Name="LBNRIND"
DataType="text">
<CodeListItem CodedValue="HIGH" Rank="1">
  <Decode>
    <TranslatedText>HIGH</TranslatedText>
  </Decode>
</CodeListItem>
<CodeListItem CodedValue="LOW" Rank="2">
  <Decode>
    <TranslatedText>LOW</TranslatedText>
  </Decode>
</CodeListItem>
<CodeListItem CodedValue="NORMAL" Rank="3">
  <Decode>
    <TranslatedText>NORMAL</TranslatedText>
  </Decode>
</CodeListItem>
</CodeList>
<CodeList OID="CL.LBTEST"
Name="LBTEST"
DataType="text">
<CodeListItem CodedValue="Albumin; Microalbumin" Rank="1">
  <Decode>
    <TranslatedText>Albumin; Microalbumin</TranslatedText>
  </Decode>
</CodeListItem>
<CodeListItem CodedValue="Alkaline Phosphatase" Rank="2">
  <Decode>
    <TranslatedText>Alkaline Phosphatase</TranslatedText>
  </Decode>
</CodeListItem>
<CodeListItem CodedValue="Alanine Aminotransferase; SGPT" Rank="3">
  <Decode>
    <TranslatedText>Alanine Aminotransferase; SGPT</TranslatedText>
  </Decode>
</CodeListItem>
<CodeListItem CodedValue="Aspartate Aminotransferase; SGOT" Rank="4">
  <Decode>
    <TranslatedText>Aspartate Aminotransferase; SGOT</TranslatedText>
  </Decode>
</CodeListItem>
<CodeListItem CodedValue="Direct Bilirubin" Rank="5">
  <Decode>
    <TranslatedText>Direct Bilirubin</TranslatedText>
  </Decode>
</CodeListItem>
<CodeListItem CodedValue="Bilirubin; Total Bilirubin" Rank="6">
  <Decode>
    <TranslatedText>Bilirubin; Total Bilirubin</TranslatedText>
  </Decode>
</CodeListItem>
<CodeListItem CodedValue="Gamma Glutamyl Transferase" Rank="7">
  <Decode>
    <TranslatedText>Gamma Glutamyl Transferase</TranslatedText>
  </Decode>
</CodeListItem>
<CodeListItem CodedValue="EVF; Erythrocyte Volume Fraction; Hematocrit; PCV; Packed Cell Volume" Rank="8">
  <Decode>
    <TranslatedText>EVF; Erythrocyte Volume Fraction; Hematocrit; PCV; Packed Cell Volume</TranslatedText>
  </Decode>
</CodeListItem>
<CodeListItem CodedValue="FHGB; Free Hemoglobin; Hemoglobin" Rank="9">
  <Decode>
    <TranslatedText>FHGB; Free Hemoglobin; Hemoglobin</TranslatedText>
  </Decode>
</CodeListItem>
<CodeListItem CodedValue="Protein" Rank="10">
  <Decode>
    <TranslatedText>Protein</TranslatedText>
  </Decode>
</CodeListItem>
<CodeListItem CodedValue="Glucose" Rank="11">
  <Decode>
    <TranslatedText>Glucose</TranslatedText>
  </Decode>
</CodeListItem>
</CodeList>
<CodeList OID="CL.LBTESTCD"
Name="LBTESTCD"
DataType="text">
<CodeListItem CodedValue="ALB" Rank="1">
  <Decode>
    <TranslatedText>Albumin; Microalbumin</TranslatedText>
  </Decode>
</CodeListItem>
<CodeListItem CodedValue="ALP" Rank="2">
  <Decode>
    <TranslatedText>Alkaline Phosphatase</TranslatedText>
  </Decode>
</CodeListItem>
<CodeListItem CodedValue="ALT" Rank="3">
  <Decode>
    <TranslatedText>Alanine Aminotransferase; SGPT</TranslatedText>
  </Decode>
</CodeListItem>
<CodeListItem CodedValue="AST" Rank="4">
  <Decode>
    <TranslatedText>Aspartate Aminotransferase; SGOT</TranslatedText>
  </Decode>
</CodeListItem>
<CodeListItem CodedValue="BILDIR" Rank="5">
  <Decode>
    <TranslatedText>Direct Bilirubin</TranslatedText>
  </Decode>
</CodeListItem>
<CodeListItem CodedValue="BILI" Rank="6">
  <Decode>
    <TranslatedText>Bilirubin; Total Bilirubin</TranslatedText>
  </Decode>
</CodeListItem>
<CodeListItem CodedValue="GGT" Rank="7">
  <Decode>
    <TranslatedText>Gamma Glutamyl Transferase</TranslatedText>
  </Decode>
</CodeListItem>
<CodeListItem CodedValue="HCT" Rank="8">
  <Decode>
    <TranslatedText>EVF; Erythrocyte Volume Fraction; Hematocrit; PCV; Packed Cell Volume</TranslatedText>
  </Decode>
</CodeListItem>
<CodeListItem CodedValue="HGB" Rank="9">
  <Decode>
    <TranslatedText>FHGB; Free Hemoglobin; Hemoglobin</TranslatedText>
  </Decode>
</CodeListItem>
<CodeListItem CodedValue="PROT" Rank="10">
  <Decode>
    <TranslatedText>Protein</TranslatedText>
  </Decode>
</CodeListItem>
<CodeListItem CodedValue="GLUC" Rank="11">
  <Decode>
    <TranslatedText>Glucose</TranslatedText>
  </Decode>
</CodeListItem>
</CodeList>
<CodeList OID="CL.NY"
Name="NY"
DataType="text">
<CodeListItem CodedValue="N" Rank="1">
  <Decode>
    <TranslatedText>No</TranslatedText>
  </Decode>
</CodeListItem>
<CodeListItem CodedValue="NA" Rank="2">
  <Decode>
    <TranslatedText>NA; Not Applicable</TranslatedText>
  </Decode>
</CodeListItem>
<CodeListItem CodedValue="U" Rank="3">
  <Decode>
    <TranslatedText>U; UNK; Unknown</TranslatedText>
  </Decode>
</CodeListItem>
<CodeListItem CodedValue="Y" Rank="4">
  <Decode>
    <TranslatedText>Yes</TranslatedText>
  </Decode>
</CodeListItem>
</CodeList>
<CodeList OID="CL.RACE"
Name="RACE"
DataType="text">
<CodeListItem CodedValue="BLACK OR AFRICAN AMERICAN" Rank="1">
  <Decode>
    <TranslatedText>BLACK OR AFRICAN AMERICAN</TranslatedText>
  </Decode>
</CodeListItem>
<CodeListItem CodedValue="ASIAN" Rank="2">
  <Decode>
    <TranslatedText>ASIAN</TranslatedText>
  </Decode>
</CodeListItem>
<CodeListItem CodedValue="WHITE" Rank="3">
  <Decode>
    <TranslatedText>WHITE</TranslatedText>
  </Decode>
</CodeListItem>
</CodeList>
<CodeList OID="CL.SEX"
Name="SEX"
DataType="text">
<CodeListItem CodedValue="F" Rank="1">
  <Decode>
    <TranslatedText>Female</TranslatedText>
  </Decode>
</CodeListItem>
<CodeListItem CodedValue="M" Rank="2">
  <Decode>
    <TranslatedText>Male</TranslatedText>
  </Decode>
</CodeListItem>
<CodeListItem CodedValue="U" Rank="3">
  <Decode>
    <TranslatedText>U; UNK; Unknown</TranslatedText>
  </Decode>
</CodeListItem>
</CodeList>
<CodeList OID="CL.TSPARM"
Name="TSPARM"
DataType="text">
<CodeListItem CodedValue="Added on to Existing Treatments" Rank="1">
  <Decode>
    <TranslatedText>Added on to Existing Treatments</TranslatedText>
  </Decode>
</CodeListItem>
<CodeListItem CodedValue="Planned Maximum Age of Subjects" Rank="2">
  <Decode>
    <TranslatedText>Planned Maximum Age of Subjects</TranslatedText>
  </Decode>
</CodeListItem>
<CodeListItem CodedValue="Planned Minimum Age of Subjects" Rank="3">
  <Decode>
    <TranslatedText>Planned Minimum Age of Subjects</TranslatedText>
  </Decode>
</CodeListItem>
<CodeListItem CodedValue="Planned Trial Length" Rank="4">
  <Decode>
    <TranslatedText>Planned Trial Length</TranslatedText>
  </Decode>
</CodeListItem>
<CodeListItem CodedValue="Planned Number of Subjects" Rank="5">
  <Decode>
    <TranslatedText>Planned Number of Subjects</TranslatedText>
  </Decode>
</CodeListItem>
<CodeListItem CodedValue="Trial is Randomized" Rank="6">
  <Decode>
    <TranslatedText>Trial is Randomized</TranslatedText>
  </Decode>
</CodeListItem>
<CodeListItem CodedValue="Sex of Participants" Rank="7">
  <Decode>
    <TranslatedText>Sex of Participants</TranslatedText>
  </Decode>
</CodeListItem>
<CodeListItem CodedValue="Study Stop Rules" Rank="8">
  <Decode>
    <TranslatedText>Study Stop Rules</TranslatedText>
  </Decode>
</CodeListItem>
<CodeListItem CodedValue="Trial Blinding Schema" Rank="9">
  <Decode>
    <TranslatedText>Trial Blinding Schema</TranslatedText>
  </Decode>
</CodeListItem>
<CodeListItem CodedValue="Control Type" Rank="10">
  <Decode>
    <TranslatedText>Control Type</TranslatedText>
  </Decode>
</CodeListItem>
<CodeListItem CodedValue="Diagnosis Group" Rank="11">
  <Decode>
    <TranslatedText>Diagnosis Group</TranslatedText>
  </Decode>
</CodeListItem>
<CodeListItem CodedValue="Trial Indication Type" Rank="12">
  <Decode>
    <TranslatedText>Trial Indication Type</TranslatedText>
  </Decode>
</CodeListItem>
<CodeListItem CodedValue="Trial Title" Rank="13">
  <Decode>
    <TranslatedText>Trial Title</TranslatedText>
  </Decode>
</CodeListItem>
<CodeListItem CodedValue="Trial Phase Classification" Rank="14">
  <Decode>
    <TranslatedText>Trial Phase Classification</TranslatedText>
  </Decode>
</CodeListItem>
<CodeListItem CodedValue="Trial Type" Rank="15">
  <Decode>
    <TranslatedText>Trial Type</TranslatedText>
  </Decode>
</CodeListItem>
<CodeListItem CodedValue="Current Therapy or Treatment" Rank="16">
  <Decode>
    <TranslatedText>Current Therapy or Treatment</TranslatedText>
  </Decode>
</CodeListItem>
<CodeListItem CodedValue="Trial Primary Objective" Rank="17">
  <Decode>
    <TranslatedText>Trial Primary Objective</TranslatedText>
  </Decode>
</CodeListItem>
<CodeListItem CodedValue="Trial Secondary Objective" Rank="18">
  <Decode>
    <TranslatedText>Trial Secondary Objective</TranslatedText>
  </Decode>
</CodeListItem>
<CodeListItem CodedValue="Clinical Study Sponsor" Rank="19">
  <Decode>
    <TranslatedText>Clinical Study Sponsor</TranslatedText>
  </Decode>
</CodeListItem>
<CodeListItem CodedValue="Trial Indication" Rank="20">
  <Decode>
    <TranslatedText>Trial Indication</TranslatedText>
  </Decode>
</CodeListItem>
<CodeListItem CodedValue="Investigational Therapy or Treatment" Rank="21">
  <Decode>
    <TranslatedText>Investigational Therapy or Treatment</TranslatedText>
  </Decode>
</CodeListItem>
<CodeListItem CodedValue="Randomization Quotient" Rank="22">
  <Decode>
    <TranslatedText>Randomization Quotient</TranslatedText>
  </Decode>
</CodeListItem>
<CodeListItem CodedValue="Registry Identifier" Rank="23">
  <Decode>
    <TranslatedText>Registry Identifier</TranslatedText>
  </Decode>
</CodeListItem>
<CodeListItem CodedValue="Primary Outcome Measure" Rank="24">
  <Decode>
    <TranslatedText>Primary Outcome Measure</TranslatedText>
  </Decode>
</CodeListItem>
<CodeListItem CodedValue="Secondary Outcome Measure" Rank="25">
  <Decode>
    <TranslatedText>Secondary Outcome Measure</TranslatedText>
  </Decode>
</CodeListItem>
<CodeListItem CodedValue="Exploratory Outcome Measure" Rank="26">
  <Decode>
    <TranslatedText>Exploratory Outcome Measure</TranslatedText>
  </Decode>
</CodeListItem>
<CodeListItem CodedValue="Pharmacological Class of Investigational Therapy" Rank="27">
  <Decode>
    <TranslatedText>Pharmacological Class of Investigational Therapy</TranslatedText>
  </Decode>
</CodeListItem>
<CodeListItem CodedValue="Planned Country of Investigational Site(s)" Rank="28">
  <Decode>
    <TranslatedText>Planned Country of Investigational Site(s)</TranslatedText>
  </Decode>
</CodeListItem>
<CodeListItem CodedValue="Adaptive Design" Rank="29">
  <Decode>
    <TranslatedText>Adaptive Design</TranslatedText>
  </Decode>
</CodeListItem>
<CodeListItem CodedValue="Data Cutoff Date" Rank="30">
  <Decode>
    <TranslatedText>Data Cutoff Date</TranslatedText>
  </Decode>
</CodeListItem>
<CodeListItem CodedValue="Data Cutoff Description" Rank="31">
  <Decode>
    <TranslatedText>Data Cutoff Description</TranslatedText>
  </Decode>
</CodeListItem>
<CodeListItem CodedValue="Intervention Model" Rank="32">
  <Decode>
    <TranslatedText>Intervention Model</TranslatedText>
  </Decode>
</CodeListItem>
<CodeListItem CodedValue="Planned Number of Arms" Rank="33">
  <Decode>
    <TranslatedText>Planned Number of Arms</TranslatedText>
  </Decode>
</CodeListItem>
<CodeListItem CodedValue="Study Type" Rank="34">
  <Decode>
    <TranslatedText>Study Type</TranslatedText>
  </Decode>
</CodeListItem>
<CodeListItem CodedValue="Intervention Type" Rank="35">
  <Decode>
    <TranslatedText>Intervention Type</TranslatedText>
  </Decode>
</CodeListItem>
<CodeListItem CodedValue="Study Start Date" Rank="36">
  <Decode>
    <TranslatedText>Study Start Date</TranslatedText>
  </Decode>
</CodeListItem>
<CodeListItem CodedValue="Study End Date" Rank="37">
  <Decode>
    <TranslatedText>Study End Date</TranslatedText>
  </Decode>
</CodeListItem>
<CodeListItem CodedValue="Actual Number of Subjects" Rank="38">
  <Decode>
    <TranslatedText>Actual Number of Subjects</TranslatedText>
  </Decode>
</CodeListItem>
<CodeListItem CodedValue="Healthy Subject" Rank="39">
  <Decode>
    <TranslatedText>Healthy Subject</TranslatedText>
  </Decode>
</CodeListItem>
<CodeListItem CodedValue="Stable Disease Minimum Duration" Rank="40">
  <Decode>
    <TranslatedText>Stable Disease Minimum Duration</TranslatedText>
  </Decode>
</CodeListItem>
<CodeListItem CodedValue="Confirmed Response Minimum Duration" Rank="41">
  <Decode>
    <TranslatedText>Confirmed Response Minimum Duration</TranslatedText>
  </Decode>
</CodeListItem>
</CodeList>
<CodeList OID="CL.TSPARMCD"
Name="TSPARMCD"
DataType="text">
<CodeListItem CodedValue="ADDON" Rank="1">
  <Decode>
    <TranslatedText>Added on to Existing Treatments</TranslatedText>
  </Decode>
</CodeListItem>
<CodeListItem CodedValue="AGEMAX" Rank="2">
  <Decode>
    <TranslatedText>Planned Maximum Age of Subjects</TranslatedText>
  </Decode>
</CodeListItem>
<CodeListItem CodedValue="AGEMIN" Rank="3">
  <Decode>
    <TranslatedText>Planned Minimum Age of Subjects</TranslatedText>
  </Decode>
</CodeListItem>
<CodeListItem CodedValue="LENGTH" Rank="4">
  <Decode>
    <TranslatedText>Planned Trial Length</TranslatedText>
  </Decode>
</CodeListItem>
<CodeListItem CodedValue="PLANSUB" Rank="5">
  <Decode>
    <TranslatedText>Planned Number of Subjects</TranslatedText>
  </Decode>
</CodeListItem>
<CodeListItem CodedValue="RANDOM" Rank="6">
  <Decode>
    <TranslatedText>Trial is Randomized</TranslatedText>
  </Decode>
</CodeListItem>
<CodeListItem CodedValue="SEXPOP" Rank="7">
  <Decode>
    <TranslatedText>Sex of Participants</TranslatedText>
  </Decode>
</CodeListItem>
<CodeListItem CodedValue="STOPRULE" Rank="8">
  <Decode>
    <TranslatedText>Study Stop Rules</TranslatedText>
  </Decode>
</CodeListItem>
<CodeListItem CodedValue="TBLIND" Rank="9">
  <Decode>
    <TranslatedText>Trial Blinding Schema</TranslatedText>
  </Decode>
</CodeListItem>
<CodeListItem CodedValue="TCNTRL" Rank="10">
  <Decode>
    <TranslatedText>Control Type</TranslatedText>
  </Decode>
</CodeListItem>
<CodeListItem CodedValue="TDIGRP" Rank="11">
  <Decode>
    <TranslatedText>Diagnosis Group</TranslatedText>
  </Decode>
</CodeListItem>
<CodeListItem CodedValue="TINDTP" Rank="12">
  <Decode>
    <TranslatedText>Trial Indication Type</TranslatedText>
  </Decode>
</CodeListItem>
<CodeListItem CodedValue="TITLE" Rank="13">
  <Decode>
    <TranslatedText>Trial Title</TranslatedText>
  </Decode>
</CodeListItem>
<CodeListItem CodedValue="TPHASE" Rank="14">
  <Decode>
    <TranslatedText>Trial Phase Classification</TranslatedText>
  </Decode>
</CodeListItem>
<CodeListItem CodedValue="TTYPE" Rank="15">
  <Decode>
    <TranslatedText>Trial Type</TranslatedText>
  </Decode>
</CodeListItem>
<CodeListItem CodedValue="CURTRT" Rank="16">
  <Decode>
    <TranslatedText>Current Therapy or Treatment</TranslatedText>
  </Decode>
</CodeListItem>
<CodeListItem CodedValue="OBJPRIM" Rank="17">
  <Decode>
    <TranslatedText>Trial Primary Objective</TranslatedText>
  </Decode>
</CodeListItem>
<CodeListItem CodedValue="OBJSEC" Rank="18">
  <Decode>
    <TranslatedText>Trial Secondary Objective</TranslatedText>
  </Decode>
</CodeListItem>
<CodeListItem CodedValue="SPONSOR" Rank="19">
  <Decode>
    <TranslatedText>Clinical Study Sponsor</TranslatedText>
  </Decode>
</CodeListItem>
<CodeListItem CodedValue="INDIC" Rank="20">
  <Decode>
    <TranslatedText>Trial Indication</TranslatedText>
  </Decode>
</CodeListItem>
<CodeListItem CodedValue="TRT" Rank="21">
  <Decode>
    <TranslatedText>Investigational Therapy or Treatment</TranslatedText>
  </Decode>
</CodeListItem>
<CodeListItem CodedValue="RANDQT" Rank="22">
  <Decode>
    <TranslatedText>Randomization Quotient</TranslatedText>
  </Decode>
</CodeListItem>
<CodeListItem CodedValue="REGID" Rank="23">
  <Decode>
    <TranslatedText>Registry Identifier</TranslatedText>
  </Decode>
</CodeListItem>
<CodeListItem CodedValue="OUTMSPRI" Rank="24">
  <Decode>
    <TranslatedText>Primary Outcome Measure</TranslatedText>
  </Decode>
</CodeListItem>
<CodeListItem CodedValue="OUTMSSEC" Rank="25">
  <Decode>
    <TranslatedText>Secondary Outcome Measure</TranslatedText>
  </Decode>
</CodeListItem>
<CodeListItem CodedValue="OUTMSEXP" Rank="26">
  <Decode>
    <TranslatedText>Exploratory Outcome Measure</TranslatedText>
  </Decode>
</CodeListItem>
<CodeListItem CodedValue="PCLAS" Rank="27">
  <Decode>
    <TranslatedText>Pharmacological Class of Investigational Therapy</TranslatedText>
  </Decode>
</CodeListItem>
<CodeListItem CodedValue="FCNTRY" Rank="28">
  <Decode>
    <TranslatedText>Planned Country of Investigational Site(s)</TranslatedText>
  </Decode>
</CodeListItem>
<CodeListItem CodedValue="ADAPT" Rank="29">
  <Decode>
    <TranslatedText>Adaptive Design</TranslatedText>
  </Decode>
</CodeListItem>
<CodeListItem CodedValue="DCUTDTC" Rank="30">
  <Decode>
    <TranslatedText>Data Cutoff Date</TranslatedText>
  </Decode>
</CodeListItem>
<CodeListItem CodedValue="DCUTDESC" Rank="31">
  <Decode>
    <TranslatedText>Data Cutoff Description</TranslatedText>
  </Decode>
</CodeListItem>
<CodeListItem CodedValue="INTMODEL" Rank="32">
  <Decode>
    <TranslatedText>Intervention Model</TranslatedText>
  </Decode>
</CodeListItem>
<CodeListItem CodedValue="NARMS" Rank="33">
  <Decode>
    <TranslatedText>Planned Number of Arms</TranslatedText>
  </Decode>
</CodeListItem>
<CodeListItem CodedValue="STYPE" Rank="34">
  <Decode>
    <TranslatedText>Study Type</TranslatedText>
  </Decode>
</CodeListItem>
<CodeListItem CodedValue="INTTYPE" Rank="35">
  <Decode>
    <TranslatedText>Intervention Type</TranslatedText>
  </Decode>
</CodeListItem>
<CodeListItem CodedValue="SSTDTC" Rank="36">
  <Decode>
    <TranslatedText>Study Start Date</TranslatedText>
  </Decode>
</CodeListItem>
<CodeListItem CodedValue="SENDTC" Rank="37">
  <Decode>
    <TranslatedText>Study End Date</TranslatedText>
  </Decode>
</CodeListItem>
<CodeListItem CodedValue="ACTSUB" Rank="38">
  <Decode>
    <TranslatedText>Actual Number of Subjects</TranslatedText>
  </Decode>
</CodeListItem>
<CodeListItem CodedValue="HLTSUBJI" Rank="39">
  <Decode>
    <TranslatedText>Healthy Subject</TranslatedText>
  </Decode>
</CodeListItem>
<CodeListItem CodedValue="SDMDUR" Rank="40">
  <Decode>
    <TranslatedText>Stable Disease Minimum Duration</TranslatedText>
  </Decode>
</CodeListItem>
<CodeListItem CodedValue="CRMDUR" Rank="41">
  <Decode>
    <TranslatedText>Confirmed Response Minimum Duration</TranslatedText>
  </Decode>
</CodeListItem>
</CodeList>
<CodeList OID="CL.UNIT"
Name="UNIT"
DataType="text">
<CodeListItem CodedValue="%" Rank="1">
  <Decode>
    <TranslatedText>Percentage</TranslatedText>
  </Decode>
</CodeListItem>
<CodeListItem CodedValue="g/dL" Rank="2">
  <Decode>
    <TranslatedText>Gram per Deciliter</TranslatedText>
  </Decode>
</CodeListItem>
<CodeListItem CodedValue="IU/L" Rank="3">
  <Decode>
    <TranslatedText>International Unit per Liter</TranslatedText>
  </Decode>
</CodeListItem>
<CodeListItem CodedValue="mg/dL" Rank="4">
  <Decode>
    <TranslatedText>Milligram per Deciliter</TranslatedText>
  </Decode>
</CodeListItem>
<CodeListItem CodedValue="mg" Rank="5">
  <Decode>
    <TranslatedText>Milligram</TranslatedText>
  </Decode>
</CodeListItem>
</CodeList>
<CodeList OID="CL.URINGLUC"
Name="URINGLUC"
DataType="text">
<CodeListItem CodedValue="NEGATIVE" Rank="1">
  <Decode>
    <TranslatedText>Negative</TranslatedText>
  </Decode>
</CodeListItem>
<CodeListItem CodedValue="POSITIVE" Rank="2">
  <Decode>
    <TranslatedText>Positive</TranslatedText>
  </Decode>
</CodeListItem>
</CodeList>
<CodeList OID="CL.VISIT"
Name="VISIT"
DataType="text">
<CodeListItem CodedValue="Baseline" Rank="1">
  <Decode>
    <TranslatedText>Baseline</TranslatedText>
  </Decode>
</CodeListItem>
<CodeListItem CodedValue="Month 3" Rank="2">
  <Decode>
    <TranslatedText>Month 3</TranslatedText>
  </Decode>
</CodeListItem>
<CodeListItem CodedValue="Month 6" Rank="3">
  <Decode>
    <TranslatedText>Month 6</TranslatedText>
  </Decode>
</CodeListItem>
</CodeList>
<CodeList OID="CL.XPTEST"
Name="XPTEST"
DataType="text">
<CodeListItem CodedValue="Pain Score" Rank="1">
  <Decode>
    <TranslatedText>Pain Score</TranslatedText>
  </Decode>
</CodeListItem>
</CodeList>
<CodeList OID="CL.XPTESTCD"
Name="XPTESTCD"
DataType="text">
<CodeListItem CodedValue="XPPAIN" Rank="1">
  <Decode>
    <TranslatedText>XPPAIN</TranslatedText>
  </Decode>
</CodeListItem>
</CodeList>
  <!-- ******************************************* -->
  <!-- COMPUTATIONAL METHOD INFORMATION        *** -->
  <!-- ******************************************* -->
<MethodDef OID="MT.SETDOMAIN" Name="Hardcode to assign domain" Type="Computation">
  <Description>
    <TranslatedText xml:lang="en">Hardcode to the name of the SDTM domain</TranslatedText>
  </Description>
</MethodDef>
<MethodDef OID="MT.STUDYDAYS" Name="--DY derivation" Type="Computation">
  <Description>
    <TranslatedText xml:lang="en">If the date is before RFSTDTC, then --DY = this date minus RFSTDTC. Otherwise, --DY = this date minus RFSTDTC plus 1.</TranslatedText>
  </Description>
</MethodDef>
<MethodDef OID="MT.SETNULL" Name="Null Value" Type="Computation">
  <Description>
    <TranslatedText xml:lang="en">Set to null</TranslatedText>
  </Description>
</MethodDef>
<MethodDef OID="MT.AE.AESEQ" Name="AESEQ derivation" Type="Computation">
  <Description>
    <TranslatedText xml:lang="en">Unique sequence based on sort order of studyid usubjid aedecod aestdtc aeendtc</TranslatedText>
  </Description>
</MethodDef>
<MethodDef OID="MT.AE.EPOCH" Name="EPOCH hardcode" Type="Computation">
  <Description>
    <TranslatedText xml:lang="en">Hardcoded to TREATMENT</TranslatedText>
  </Description>
</MethodDef>
<MethodDef OID="MT.DM.RFENDTC" Name="RFENDTC derivation" Type="Computation">
  <Description>
    <TranslatedText xml:lang="en">RFENDTC is the last date of dosing from the source dosing dataset</TranslatedText>
  </Description>
</MethodDef>
<MethodDef OID="MT.DM.DTHDTC" Name="DTHDTC derivation" Type="Computation">
  <Description>
    <TranslatedText xml:lang="en">DTHDTC is set to null as no subjects died</TranslatedText>
  </Description>
</MethodDef>
<MethodDef OID="MT.DM.DTHFL" Name="DTHFL derivation" Type="Computation">
  <Description>
    <TranslatedText xml:lang="en">DTHFL='N' since no subjects died</TranslatedText>
  </Description>
</MethodDef>
<MethodDef OID="MT.DM.AGE" Name="Algorithm to compute age" Type="Computation">
  <Description>
    <TranslatedText xml:lang="en">integer value of (BRTHDTC - RFSTDTC)/365.25</TranslatedText>
  </Description>
</MethodDef>
<MethodDef OID="MT.DM.AGEU" Name="Age units hardcode" Type="Computation">
  <Description>
    <TranslatedText xml:lang="en">Hardcoded to YEARS</TranslatedText>
  </Description>
</MethodDef>
<MethodDef OID="MT.DM.COUNTRY" Name="Country hardcode" Type="Computation">
  <Description>
    <TranslatedText xml:lang="en">Hardcoded to USA</TranslatedText>
  </Description>
</MethodDef>
<MethodDef OID="MT.EX.EXSEQ" Name="EXSEQ derivation" Type="Computation">
  <Description>
    <TranslatedText xml:lang="en">Unique sequence based on sort order of studyid usubjid extrt exstdtc</TranslatedText>
  </Description>
</MethodDef>
<MethodDef OID="MT.EX.EXTRT" Name="EXTRT derivation" Type="Computation">
  <Description>
    <TranslatedText xml:lang="en">All subjects were dosed with what they were randomized to, so EXTRT=DM.ARM</TranslatedText>
  </Description>
</MethodDef>
<MethodDef OID="MT.EX.EXDOSU" Name="EXDOSU hardcode" Type="Computation">
  <Description>
    <TranslatedText xml:lang="en">Hardcoded to mg</TranslatedText>
  </Description>
</MethodDef>
<MethodDef OID="MT.EX.EXDOSFRM" Name="EXDOSFRM hardcode" Type="Computation">
  <Description>
    <TranslatedText xml:lang="en">Hardcoded to TABLET, COATED</TranslatedText>
  </Description>
</MethodDef>
<MethodDef OID="MT.EX.EPOCH" Name="EPOCH hardcode" Type="Computation">
  <Description>
    <TranslatedText xml:lang="en">Hardcoded to TREATMENT</TranslatedText>
  </Description>
</MethodDef>
<MethodDef OID="MT.LB.LBSEQ" Name="LBSEQ derivation" Type="Computation">
  <Description>
    <TranslatedText xml:lang="en">Unique sequence based on sort order of studyid usubjid lbcat lbtestcd visitnum</TranslatedText>
  </Description>
</MethodDef>
<MethodDef OID="MT.LB.LBTESTCD" Name="LBTESTCD derivation" Type="Computation">
  <Description>
    <TranslatedText xml:lang="en">Source labs.labtest variable mapped to LBTESTCD controlled terminology</TranslatedText>
  </Description>
</MethodDef>
<MethodDef OID="MT.LB.LBTEST" Name="LBTEST derivation" Type="Computation">
  <Description>
    <TranslatedText xml:lang="en">Source labs.labtest variable mapped to LBTEST controlled terminology</TranslatedText>
  </Description>
</MethodDef>
<MethodDef OID="MT.LB.LBCAT" Name="LBCAT derivation" Type="Computation">
  <Description>
    <TranslatedText xml:lang="en">Source labs.labcat variable mapped to LBCAT controlled terminology</TranslatedText>
  </Description>
</MethodDef>
<MethodDef OID="MT.LB.LBSTRESC" Name="LBSTRESC derivation" Type="Computation">
  <Description>
    <TranslatedText xml:lang="en">Copied directly (and unrealistically) from LBORRES</TranslatedText>
  </Description>
</MethodDef>
<MethodDef OID="MT.LB.LBSTRESN" Name="LBSTRESN derivation" Type="Computation">
  <Description>
    <TranslatedText xml:lang="en">Copied directly (and unrealistically) from LBORRES</TranslatedText>
  </Description>
</MethodDef>
<MethodDef OID="MT.LB.LBSTRESU" Name="LBSTRESN derivation" Type="Computation">
  <Description>
    <TranslatedText xml:lang="en">Copied directly (and unrealistically) from LBORRESU</TranslatedText>
  </Description>
</MethodDef>
<MethodDef OID="MT.LB.LBSTNRLO" Name="LBSTNRLO derivation" Type="Computation">
  <Description>
    <TranslatedText xml:lang="en">Set equal to (and unrealistically) from the soucre labs.lownorm</TranslatedText>
  </Description>
</MethodDef>
<MethodDef OID="MT.LB.LBSTNRHI" Name="LBSTNRHI derivation" Type="Computation">
  <Description>
    <TranslatedText xml:lang="en">Set equal to (and unrealistically) from the soucre labs.highnorm</TranslatedText>
  </Description>
</MethodDef>
<MethodDef OID="MT.LB.LBNRIND" Name="LBNRIND derivation" Type="Computation">
  <Description>
    <TranslatedText xml:lang="en">if lbtestcd = 'GLUC' and lbcat = 'URINALYSIS' and lborres = 'POSITIVE' then   lbnrind = 'HIGH'; else if lbtestcd = 'GLUC' and lbcat = 'URINALYSIS' and lborres = 'NEGATIVE' then   lbnrind = 'NORMAL'; else if lbstnrlo ne . and lbstresn ne . and              round(lbstresn,.0000001) &lt; round(lbstnrlo,.0000001) then          lbnrind = 'LOW';    else if lbstnrhi ne . and lbstresn ne . and             round(lbstresn,.0000001) &gt; round(lbstnrhi,.0000001) then      lbnrind = 'HIGH';    else if lbstnrhi ne . and lbstresn ne . then      lbnrind = 'NORMAL';</TranslatedText>
  </Description>
</MethodDef>
<MethodDef OID="MT.LB.LBBLFL" Name="LBBLFL derivation" Type="Computation">
  <Description>
    <TranslatedText xml:lang="en">If visit=Baseline then Y, else blank</TranslatedText>
  </Description>
</MethodDef>
<MethodDef OID="MT.LB.EPOCH" Name="EPOCH derivation" Type="Computation">
  <Description>
    <TranslatedText xml:lang="en">If VISITNUM &lt; 0 then SCREENING and otherwise TREATMENT</TranslatedText>
  </Description>
</MethodDef>
<MethodDef OID="MT.METADATAENTRY" Name="Manual entry" Type="Computation">
  <Description>
    <TranslatedText xml:lang="en">This variable consists of study level metadata that was manually entered</TranslatedText>
  </Description>
</MethodDef>
<MethodDef OID="MT.XP.XPSEQ" Name="XPSEQ derivation" Type="Computation">
  <Description>
    <TranslatedText xml:lang="en">Unique sequence based on sort order of studyid usubjid xptestcd visitnum</TranslatedText>
  </Description>
</MethodDef>
<MethodDef OID="MT.XP.XPTESTCD" Name="XPTESTCD hardcode" Type="Computation">
  <Description>
    <TranslatedText xml:lang="en">Set to XPAIN</TranslatedText>
  </Description>
</MethodDef>
<MethodDef OID="MT.XP.XPTEST" Name="XPTEST hardcode" Type="Computation">
  <Description>
    <TranslatedText xml:lang="en">Set to Pain Score</TranslatedText>
  </Description>
</MethodDef>
<MethodDef OID="MT.XP.EPOCH" Name="EPOCH hardcode" Type="Computation">
  <Description>
    <TranslatedText xml:lang="en">Hardcoded to TREATMENT</TranslatedText>
  </Description>
</MethodDef>
<MethodDef OID="MT.XP.XPBLFL" Name="XPBLFL derivation" Type="Computation">
  <Description>
    <TranslatedText xml:lang="en">If visit=Baseline then Y, else blank</TranslatedText>
  </Description>
</MethodDef>
<MethodDef OID="MT.SUPPDM.RACEOTH" Name="RACEOTH derivation" Type="Computation">
  <Description>
    <TranslatedText xml:lang="en">Set to other race from source demographics file</TranslatedText>
  </Description>
</MethodDef>
<MethodDef OID="MT.SUPPDM.RANDDT" Name="RANDDT derivation" Type="Computation">
  <Description>
    <TranslatedText xml:lang="en">Set equal to the randomization date from the source demographics file</TranslatedText>
  </Description>
</MethodDef>


  <!-- ******************************** -->
  <!-- COMMENTS DEFINITION SECTION      -->
  <!-- ******************************** -->
<def:CommentDef OID="COM.COM.ARMCD">
  <Description>
    <TranslatedText xml:lang="en">Assigned based on Randomization Number.</TranslatedText>
  </Description>
</def:CommentDef>
<def:CommentDef OID="COM.com.ae">
  <Description>
    <TranslatedText xml:lang="en">MedDRA dictionary version XX.1 was used to code all adverse events.</TranslatedText>
  </Description>
</def:CommentDef>
    <!-- ******************************************* -->
    <!-- LEAF DEFINITION SECTION                 *** -->
    <!-- ******************************************* -->
<def:leaf ID="LF.blankcrf"
  xlink:href="blankcrf.pdf">
  <def:title>Annotated Case Report Form</def:title>
</def:leaf>
<def:leaf ID="LF.CRTRG"
  xlink:href="reviewersguide.pdf">
  <def:title>CRT Reviewer's Guide</def:title>
</def:leaf>
</MetaDataVersion>
</Study>
</ODM>
